date,time,,millisec,quaternion.w,quaternion.x,quaternion.y,quaternion.z,angle.x,angle.y,angle.z,acc.x,acc.y,acc.z,gyro.x,gyro.y,gyro.z,compass,power
2017/01/13,14:16:50,50,223,-0.439453,0.897949,-0.00616455,0.0230713,-2.06399,-1.79759,127.814,0.0078125,-0.0078125,0.492188,-0.0078125,-0.0078125,0,246,0
2017/01/13,14:16:50,50,256,-0.439453,0.897949,-0.00616455,0.0230713,-2.06399,-1.79759,127.814,0.0078125,-0.0078125,0.484375,-0.0078125,0,0,246,0
2017/01/13,14:16:50,50,274,-0.439453,0.897949,-0.00592041,0.0231934,-2.08886,-1.77861,127.814,0.0078125,-0.0078125,0.492188,-0.0078125,0,0,246,0
2017/01/13,14:16:50,50,291,-0.439453,0.897949,-0.00592041,0.0231934,-2.08886,-1.77861,127.814,0.0078125,-0.0078125,0.492188,-0.0078125,0,0,246,0
2017/01/13,14:16:50,50,370,-0.439453,0.897949,-0.0057373,0.0233154,-2.11066,-1.76593,127.814,0.0078125,-0.0078125,0.484375,-0.0078125,0,0,246,0
2017/01/13,14:16:50,50,371,-0.439453,0.897949,-0.0057373,0.0233154,-2.11066,-1.76593,127.814,0.0078125,-0.0078125,0.492188,-0.0078125,0,0,246,0
2017/01/13,14:16:50,50,372,-0.439453,0.897949,-0.0055542,0.0233765,-2.12617,-1.75017,127.814,0.0078125,-0.0078125,0.492188,-0.0078125,0,0,246,0
2017/01/13,14:16:50,50,390,-0.439453,0.897949,-0.0055542,0.0233765,-2.12617,-1.75017,127.814,0.0078125,-0.0078125,0.492188,-0.0078125,0,0,246,0
2017/01/13,14:16:50,50,407,-0.439453,0.897949,-0.00537109,0.0233765,-2.1354,-1.73131,127.814,0.0078125,-0.0078125,0.492188,-0.0078125,0,0,246,0
2017/01/13,14:16:50,50,456,-0.439453,0.897949,-0.00537109,0.0233765,-2.1354,-1.73131,127.814,0.0078125,-0.0078125,0.492188,-0.0078125,0,0,246,0
2017/01/13,14:16:50,50,573,-0.439453,0.897949,-0.00518799,0.0233765,-2.14462,-1.71246,127.814,0.0078125,-0.0078125,0.484375,-0.0078125,0,0,246,0
2017/01/13,14:16:50,50,574,-0.439453,0.897949,-0.00518799,0.0233765,-2.14462,-1.71246,127.814,0.0078125,-0.0078125,0.492188,-0.0078125,0,0,246,0
2017/01/13,14:16:50,50,575,-0.439453,0.897949,-0.00494385,0.0234375,-2.16321,-1.69041,127.814,0.0078125,-0.0078125,0.492188,-0.0078125,0,0,246,0
2017/01/13,14:16:50,50,590,-0.439453,0.897949,-0.00494385,0.0234375,-2.16321,-1.69041,127.814,0.0078125,-0.0078125,0.492188,-0.0078125,0,0,246,0
2017/01/13,14:16:50,50,591,-0.439514,0.897888,-0.00476074,0.0234985,-2.17853,-1.67487,127.805,0.0078125,-0.0078125,0.492188,-0.0078125,0,0,246,0
2017/01/13,14:16:50,50,592,-0.439514,0.897888,-0.00476074,0.0234985,-2.17853,-1.67487,127.805,0.0078125,-0.0078125,0.484375,-0.0078125,0,0,246,0
2017/01/13,14:16:50,50,723,-0.439514,0.897888,-0.00457764,0.0236206,-2.20032,-1.66217,127.805,0.0078125,-0.0078125,0.492188,-0.0078125,0,0,246,0
2017/01/13,14:16:50,50,724,-0.439514,0.897888,-0.00457764,0.0236206,-2.20032,-1.66217,127.805,0.0078125,-0.0078125,0.492188,-0.0078125,0,0,246,0
2017/01/13,14:16:50,50,725,-0.439514,0.897888,-0.00439453,0.0237427,-2.22212,-1.64949,127.805,0.0078125,-0.0078125,0.492188,-0.0078125,0,0,246,0
2017/01/13,14:16:50,50,740,-0.439514,0.897888,-0.00439453,0.0237427,-2.22212,-1.64949,127.805,0.0078125,-0.0078125,0.492188,-0.0078125,0,0,246,0
2017/01/13,14:16:50,50,741,-0.439514,0.897888,-0.00427246,0.0238037,-2.23456,-1.63998,127.805,0.0078125,-0.0078125,0.492188,-0.0078125,-0.0078125,0,246,0
2017/01/13,14:16:50,50,742,-0.439514,0.897888,-0.00427246,0.0238037,-2.23456,-1.63998,127.805,0.0078125,-0.0078125,0.492188,-0.0078125,0,0,246,0
2017/01/13,14:16:50,50,773,-0.439575,0.897888,-0.00415039,0.0239258,-2.25325,-1.63367,127.798,0.0078125,-0.0078125,0.492188,-0.0078125,0,0,246,0
2017/01/13,14:16:50,50,790,-0.439575,0.897888,-0.00415039,0.0239258,-2.25325,-1.63367,127.798,0.0078125,-0.0078125,0.484375,-0.0078125,0,0,246,0
2017/01/13,14:16:50,50,857,-0.439575,0.897888,-0.00402832,0.0239868,-2.26569,-1.62419,127.798,0.0078125,-0.0078125,0.492188,-0.0078125,0,0,246,0
2017/01/13,14:16:50,50,858,-0.439575,0.897888,-0.00402832,0.0239868,-2.26569,-1.62419,127.798,0.0078125,-0.0078125,0.492188,-0.0078125,0,0,246,0
2017/01/13,14:16:50,50,859,-0.439575,0.897888,-0.00390625,0.0240479,-2.27813,-1.6147,127.798,0.0078125,-0.0078125,0.492188,-0.0078125,0,0,246,0
2017/01/13,14:16:50,50,890,-0.439575,0.897888,-0.00390625,0.0240479,-2.27813,-1.6147,127.798,0.0078125,-0.0078125,0.492188,-0.0078125,0,0,246,0
2017/01/13,14:16:50,50,924,-0.439575,0.897888,-0.00378418,0.0241089,-2.29057,-1.60521,127.798,0.0078125,-0.0078125,0.492188,-0.0078125,0,0,246,0
2017/01/13,14:16:50,50,956,-0.439575,0.897888,-0.00378418,0.0241089,-2.29057,-1.60521,127.798,0.0078125,-0.0078125,0.492188,-0.0078125,0,0,246,0
2017/01/13,14:16:50,50,973,-0.439514,0.897888,-0.00372314,0.0241699,-2.29996,-1.60191,127.805,0.0078125,-0.0078125,0.492188,-0.0078125,0,0,246,0
2017/01/13,14:16:51,51,6,-0.439514,0.897888,-0.00372314,0.0241699,-2.29996,-1.60191,127.805,0.0078125,-0.0078125,0.492188,-0.0078125,0,0,246,0
2017/01/13,14:16:51,51,7,-0.439514,0.897888,-0.00360107,0.0241699,-2.30611,-1.58936,127.805,0.0078125,-0.0078125,0.492188,-0.0078125,0,0,247,0
2017/01/13,14:16:51,51,57,-0.439514,0.897888,-0.00360107,0.0241699,-2.30611,-1.58936,127.805,0.0078125,-0.0078125,0.492188,-0.0078125,0,0,247,0
2017/01/13,14:16:51,51,73,-0.439514,0.897888,-0.00354004,0.024231,-2.31547,-1.58615,127.805,0.0078125,-0.0078125,0.492188,-0.0078125,-0.0078125,0,247,0
2017/01/13,14:16:51,51,90,-0.439514,0.897888,-0.00354004,0.024231,-2.31547,-1.58615,127.805,0.0078125,-0.0078125,0.492188,-0.0078125,0,0,247,0
2017/01/13,14:16:51,51,123,-0.439514,0.897888,-0.003479,0.024231,-2.31855,-1.57988,127.805,0,-0.0078125,0.492188,-0.0078125,0,0,247,0
2017/01/13,14:16:51,51,157,-0.439514,0.897888,-0.003479,0.024231,-2.31855,-1.57988,127.805,0.0078125,-0.0078125,0.492188,-0.0078125,0,0,246,0
2017/01/13,14:16:51,51,158,-0.439514,0.897888,-0.00335693,0.024231,-2.3247,-1.56731,127.805,0.0078125,-0.0078125,0.492188,-0.0078125,-0.0078125,0,246,0
2017/01/13,14:16:51,51,190,-0.439514,0.897888,-0.00335693,0.024231,-2.3247,-1.56731,127.805,0.0078125,-0.0078125,0.492188,-0.0078125,0,0,247,0
2017/01/13,14:16:51,51,290,-0.439453,0.897888,-0.00335693,0.024231,-2.32472,-1.56723,127.811,0.0078125,-0.0078125,0.484375,-0.0078125,0,0,246,0
2017/01/13,14:16:51,51,291,-0.439453,0.897888,-0.00335693,0.024231,-2.32472,-1.56723,127.811,0.0078125,-0.0078125,0.492188,-0.0078125,0,0,246,0
2017/01/13,14:16:51,51,308,-0.439453,0.897949,-0.0032959,0.024231,-2.32797,-1.56079,127.814,0.0078125,-0.0078125,0.484375,-0.0078125,0,0,246,0
2017/01/13,14:16:51,51,309,-0.439453,0.897949,-0.0032959,0.024231,-2.32797,-1.56079,127.814,0,-0.0078125,0.492188,-0.0078125,-0.0078125,0,246,0
2017/01/13,14:16:51,51,310,-0.439392,0.897949,-0.00317383,0.024292,-2.34043,-1.55121,127.821,0.0078125,-0.0078125,0.492188,-0.0078125,0,0,246,0
2017/01/13,14:16:51,51,340,-0.439392,0.897949,-0.00317383,0.024292,-2.34043,-1.55121,127.821,0.0078125,-0.0078125,0.492188,-0.0078125,-0.0078125,0,246,0
2017/01/13,14:16:51,51,374,-0.439453,0.897949,-0.00311279,0.0244141,-2.35605,-1.55118,127.814,0.0078125,-0.0078125,0.484375,-0.0078125,0,0,246,0
2017/01/13,14:16:51,51,390,-0.439453,0.897949,-0.00311279,0.0244141,-2.35605,-1.55118,127.814,0.0078125,-0.0078125,0.492188,-0.0078125,0,0,246,0
2017/01/13,14:16:51,51,423,-0.439392,0.897949,-0.00305176,0.0244751,-2.36544,-1.54788,127.82,0.0078125,-0.0078125,0.492188,-0.0078125,-0.0078125,0,246,0
2017/01/13,14:16:51,51,456,-0.439392,0.897949,-0.00305176,0.0244751,-2.36544,-1.54788,127.82,0.0078125,-0.0078125,0.492188,-0.0078125,-0.0078125,0,246,0
2017/01/13,14:16:51,51,457,-0.439392,0.897949,-0.00299072,0.0246582,-2.38737,-1.55083,127.82,0.0078125,-0.0078125,0.492188,-0.0078125,-0.0078125,0,246,0
2017/01/13,14:16:51,51,490,-0.439392,0.897949,-0.00292969,0.0247803,-2.40302,-1.5507,127.82,0.0078125,-0.0078125,0.492188,-0.0078125,-0.0078125,0,247,0
2017/01/13,14:16:51,51,523,-0.439392,0.897949,-0.00292969,0.0247803,-2.40302,-1.5507,127.82,0.0078125,-0.0078125,0.492188,-0.0078125,-0.0078125,0,247,0
2017/01/13,14:16:51,51,571,-0.439392,0.897949,-0.00286865,0.0249023,-2.41867,-1.55058,127.82,0.0078125,-0.0078125,0.492188,-0.0078125,-0.0078125,0,247,0
2017/01/13,14:16:51,51,572,-0.439392,0.897949,-0.00286865,0.0249023,-2.41867,-1.55058,127.82,0.0078125,-0.0078125,0.492188,-0.0078125,-0.0078125,0,247,0
2017/01/13,14:16:51,51,590,-0.439392,0.897949,-0.00286865,0.0250244,-2.43124,-1.55675,127.819,0.0078125,-0.0078125,0.492188,-0.0078125,-0.0078125,0,247,0
2017/01/13,14:16:51,51,623,-0.439392,0.897949,-0.00286865,0.0250244,-2.43124,-1.55675,127.819,0.0078125,-0.0078125,0.492188,-0.0078125,-0.0078125,0,247,0
2017/01/13,14:16:51,51,639,-0.439392,0.897949,-0.00286865,0.0250854,-2.43752,-1.55981,127.819,0.0078125,-0.0078125,0.492188,-0.0078125,-0.0078125,0,246,0
2017/01/13,14:16:51,51,674,-0.439392,0.897949,-0.00286865,0.0250854,-2.43752,-1.55981,127.819,0.0078125,-0.0078125,0.492188,-0.0078125,0,0,247,0
2017/01/13,14:16:51,51,706,-0.439392,0.897949,-0.00280762,0.0252075,-2.45317,-1.55969,127.819,0.0078125,-0.0078125,0.492188,-0.0078125,0,0,246,0
2017/01/13,14:16:51,51,724,-0.439392,0.897949,-0.00280762,0.0252075,-2.45317,-1.55969,127.819,0.0078125,-0.0078125,0.492188,-0.0078125,0,0,246,0
2017/01/13,14:16:51,51,740,-0.439392,0.897949,-0.00274658,0.0252075,-2.45625,-1.55341,127.819,0.0078125,-0.0078125,0.492188,-0.0078125,0,0,246,0
2017/01/13,14:16:51,51,790,-0.439392,0.897949,-0.00274658,0.0252075,-2.45625,-1.55341,127.819,0.0078125,-0.0078125,0.492188,-0.0078125,0,0,246,0
2017/01/13,14:16:51,51,791,-0.439331,0.897949,-0.00268555,0.0252686,-2.46563,-1.55013,127.825,0.0078125,-0.0078125,0.492188,-0.0078125,0,0,246,0
2017/01/13,14:16:51,51,825,-0.439331,0.897949,-0.00268555,0.0252686,-2.46563,-1.55013,127.825,0,-0.0078125,0.492188,-0.0078125,-0.0078125,0,246,0
2017/01/13,14:16:51,51,857,-0.439331,0.897949,-0.00262451,0.0253296,-2.47499,-1.54691,127.825,0.0078125,-0.0078125,0.492188,-0.0078125,-0.0078125,0,247,0
2017/01/13,14:16:51,51,873,-0.439331,0.897949,-0.00262451,0.0253296,-2.47499,-1.54691,127.825,0.0078125,-0.0078125,0.492188,-0.0078125,-0.0078125,0,247,0
2017/01/13,14:16:51,51,906,-0.439331,0.897949,-0.00262451,0.0253906,-2.48128,-1.55,127.825,0.0078125,-0.0078125,0.492188,-0.0078125,-0.0078125,0,247,0
2017/01/13,14:16:51,51,923,-0.439331,0.897949,-0.00262451,0.0253906,-2.48128,-1.55,127.825,0.0078125,-0.0078125,0.492188,-0.0078125,-0.0078125,0,247,0
2017/01/13,14:16:51,51,973,-0.439331,0.897949,-0.00256348,0.0254517,-2.49064,-1.54678,127.825,0.0078125,-0.0078125,0.492188,-0.0078125,-0.0078125,0,246,0
2017/01/13,14:16:51,51,974,-0.439331,0.897949,-0.00256348,0.0254517,-2.49064,-1.54678,127.825,0.0078125,-0.0078125,0.492188,-0.0078125,-0.0078125,0,246,0
2017/01/13,14:16:52,52,23,-0.439331,0.897949,-0.00250244,0.0255737,-2.50629,-1.54666,127.825,0.0078125,-0.0078125,0.492188,-0.0078125,-0.0078125,0,246,0
2017/01/13,14:16:52,52,24,-0.439331,0.897949,-0.00250244,0.0255737,-2.50629,-1.54666,127.825,0.0078125,-0.0078125,0.492188,-0.0078125,-0.0078125,0,246,0
2017/01/13,14:16:52,52,57,-0.439331,0.897949,-0.00250244,0.0256348,-2.51257,-1.54974,127.825,0.0078125,-0.0078125,0.492188,-0.0078125,-0.0078125,0,246,0
2017/01/13,14:16:52,52,74,-0.439331,0.897949,-0.00250244,0.0256348,-2.51257,-1.54974,127.825,0.0078125,-0.0078125,0.484375,-0.0078125,0,0,246,0
2017/01/13,14:16:52,52,107,-0.43927,0.897949,-0.00244141,0.0256958,-2.52195,-1.54643,127.831,0.0078125,-0.0078125,0.484375,-0.0078125,0,0,246,0
2017/01/13,14:16:52,52,124,-0.43927,0.897949,-0.00244141,0.0256958,-2.52195,-1.54643,127.831,0.0078125,-0.0078125,0.492188,-0.0078125,-0.0078125,0,246,0
2017/01/13,14:16:52,52,156,-0.43927,0.897949,-0.00244141,0.0256958,-2.52195,-1.54643,127.831,0.0078125,-0.0078125,0.492188,-0.0078125,-0.0078125,0,246,0
2017/01/13,14:16:52,52,190,-0.43927,0.897949,-0.00244141,0.0256958,-2.52195,-1.54643,127.831,0.0078125,-0.0078125,0.484375,-0.0078125,-0.0078125,0,246,0
2017/01/13,14:16:52,52,191,-0.43927,0.897949,-0.00244141,0.0257568,-2.52824,-1.54951,127.831,0.0078125,-0.0078125,0.492188,-0.0078125,0,0,246,0
2017/01/13,14:16:52,52,224,-0.43927,0.897949,-0.00244141,0.0257568,-2.52824,-1.54951,127.831,0.0078125,-0.0078125,0.484375,-0.0078125,0,0,247,0
2017/01/13,14:16:52,52,256,-0.43927,0.897949,-0.00238037,0.0257568,-2.53132,-1.54323,127.831,0.0078125,-0.0078125,0.492188,-0.0078125,-0.0078125,0,247,0
2017/01/13,14:16:52,52,291,-0.43927,0.897949,-0.00238037,0.0257568,-2.53132,-1.54323,127.831,0.0078125,-0.0078125,0.492188,-0.0078125,-0.0078125,0,247,0
2017/01/13,14:16:52,52,307,-0.43927,0.897949,-0.00231934,0.0258179,-2.54068,-1.54002,127.831,0.0078125,-0.0078125,0.492188,-0.0078125,0,0,247,0
2017/01/13,14:16:52,52,375,-0.43927,0.897949,-0.00231934,0.0258179,-2.54068,-1.54002,127.831,0.0078125,-0.0078125,0.492188,-0.0078125,0,0,247,0
2017/01/13,14:16:52,52,376,-0.43927,0.897949,-0.00231934,0.0258179,-2.54068,-1.54002,127.831,0.0078125,-0.0078125,0.492188,-0.0078125,0,0,247,0
2017/01/13,14:16:52,52,387,-0.43927,0.897949,-0.00231934,0.0258179,-2.54068,-1.54002,127.831,0.0078125,-0.0078125,0.492188,-0.0078125,0,0,246,0
2017/01/13,14:16:52,52,407,-0.43927,0.897949,-0.00219727,0.0258789,-2.55311,-1.53053,127.831,0.0078125,-0.0078125,0.492188,-0.0078125,0,0,247,0
2017/01/13,14:16:52,52,423,-0.43927,0.897949,-0.00219727,0.0258789,-2.55311,-1.53053,127.831,0.0078125,-0.0078125,0.492188,-0.0078125,0,0,247,0
2017/01/13,14:16:52,52,456,-0.439209,0.89801,-0.00219727,0.0258789,-2.55331,-1.53029,127.84,0.0078125,-0.0078125,0.484375,-0.0078125,-0.0078125,0,247,0
2017/01/13,14:16:52,52,486,-0.439209,0.89801,-0.00219727,0.0258789,-2.55331,-1.53029,127.84,0.0078125,-0.0078125,0.492188,-0.0078125,-0.0078125,0,246,0
2017/01/13,14:16:52,52,506,-0.439209,0.89801,-0.00219727,0.0259399,-2.5596,-1.53336,127.84,0.0078125,-0.0078125,0.492188,-0.0078125,-0.0078125,0,246,0
2017/01/13,14:16:52,52,523,-0.439209,0.89801,-0.00219727,0.0259399,-2.5596,-1.53336,127.84,0.0078125,-0.0078125,0.492188,-0.0078125,-0.0078125,0,246,0
2017/01/13,14:16:52,52,590,-0.439209,0.89801,-0.00219727,0.026001,-2.56588,-1.53645,127.84,0.0078125,-0.0078125,0.492188,-0.0078125,-0.0078125,0,246,0
2017/01/13,14:16:52,52,591,-0.439209,0.89801,-0.00219727,0.026001,-2.56588,-1.53645,127.84,0.0078125,-0.0078125,0.492188,-0.0078125,-0.0078125,0,247,0
2017/01/13,14:16:52,52,606,-0.439148,0.89801,-0.00219727,0.026001,-2.5659,-1.53633,127.846,0.0078125,-0.0078125,0.492188,-0.0078125,-0.0078125,0,246,0
2017/01/13,14:16:52,52,641,-0.439148,0.89801,-0.00219727,0.026001,-2.5659,-1.53633,127.846,0.0078125,-0.0078125,0.492188,-0.0078125,-0.0078125,0,246,0
2017/01/13,14:16:52,52,642,-0.439148,0.89801,-0.00219727,0.026062,-2.57219,-1.53943,127.846,0.0078125,-0.0078125,0.492188,-0.0078125,0,0,246,0
2017/01/13,14:16:52,52,707,-0.439148,0.89801,-0.00219727,0.026062,-2.57219,-1.53943,127.846,0.0078125,-0.0078125,0.492188,-0.0078125,-0.0078125,0,246,0
2017/01/13,14:16:52,52,708,-0.439148,0.89801,-0.00219727,0.026062,-2.57219,-1.53943,127.846,0.0078125,-0.0078125,0.492188,-0.0078125,0,0,246,0
2017/01/13,14:16:52,52,740,-0.439148,0.89801,-0.00219727,0.026062,-2.57219,-1.53943,127.846,0.0078125,-0.0078125,0.492188,-0.0078125,0,0,246,0
2017/01/13,14:16:52,52,757,-0.439148,0.89801,-0.00213623,0.026062,-2.57526,-1.53314,127.846,0.0078125,-0.0078125,0.492188,-0.0078125,0,0,246,0
2017/01/13,14:16:52,52,791,-0.439148,0.89801,-0.00213623,0.026062,-2.57526,-1.53314,127.846,0.0078125,-0.0078125,0.492188,-0.0078125,-0.0078125,0,246,0
2017/01/13,14:16:52,52,815,-0.439148,0.89801,-0.00213623,0.026123,-2.58155,-1.53621,127.846,0.0078125,-0.0078125,0.492188,-0.0078125,-0.0078125,0,246,0
2017/01/13,14:16:52,52,841,-0.439148,0.89801,-0.00213623,0.026123,-2.58155,-1.53621,127.846,0.0078125,-0.0078125,0.492188,-0.0078125,-0.0078125,0,246,0
2017/01/13,14:16:52,52,857,-0.439148,0.89801,-0.00213623,0.026123,-2.58155,-1.53621,127.846,0.0078125,-0.0078125,0.492188,-0.0078125,0,0,246,0
2017/01/13,14:16:52,52,873,-0.439148,0.89801,-0.00213623,0.026123,-2.58155,-1.53621,127.846,0.0078125,-0.0078125,0.492188,-0.0078125,0,0,247,0
2017/01/13,14:16:52,52,906,-0.439148,0.89801,-0.0020752,0.026123,-2.58462,-1.52992,127.846,0.0078125,-0.0078125,0.492188,-0.0078125,0,0,246,0
2017/01/13,14:16:52,52,940,-0.439148,0.89801,-0.0020752,0.026123,-2.58462,-1.52992,127.846,0.0078125,-0.0078125,0.492188,-0.0078125,0,0,246,0
2017/01/13,14:16:52,52,941,-0.439087,0.89801,-0.0020752,0.026123,-2.58464,-1.52982,127.852,0.0078125,-0.0078125,0.492188,-0.0078125,0,0,246,0
2017/01/13,14:16:52,52,973,-0.439087,0.89801,-0.0020752,0.026123,-2.58464,-1.52982,127.852,0.0078125,-0.0078125,0.492188,-0.0078125,0,0,246,0
2017/01/13,14:16:53,53,7,-0.439087,0.89801,-0.0020752,0.026123,-2.58464,-1.52982,127.852,0.0078125,-0.0078125,0.492188,-0.0078125,0,0,246,0
2017/01/13,14:16:53,53,23,-0.439087,0.89801,-0.0020752,0.026123,-2.58464,-1.52982,127.852,0.0078125,-0.0078125,0.492188,-0.0078125,0,0,247,0
2017/01/13,14:16:53,53,66,-0.439087,0.898071,-0.00201416,0.026123,-2.5879,-1.52339,127.856,0.0078125,-0.0078125,0.492188,-0.0078125,0,0,246,0
2017/01/13,14:16:53,53,91,-0.439087,0.898071,-0.00201416,0.026123,-2.5879,-1.52339,127.856,0.0078125,-0.0078125,0.492188,-0.0078125,-0.0078125,0,246,0
2017/01/13,14:16:53,53,107,-0.439087,0.898071,-0.00201416,0.026123,-2.5879,-1.52339,127.856,0.0078125,-0.0078125,0.492188,-0.0078125,0,0,247,0
2017/01/13,14:16:53,53,123,-0.439087,0.898071,-0.00201416,0.026123,-2.5879,-1.52339,127.856,0.0078125,-0.0078125,0.492188,-0.0078125,0,0,247,0
2017/01/13,14:16:53,53,157,-0.439026,0.898071,-0.00201416,0.026123,-2.58791,-1.52328,127.862,0.0078125,-0.0078125,0.492188,-0.0078125,0,0,247,0
2017/01/13,14:16:53,53,203,-0.439026,0.898071,-0.00201416,0.026123,-2.58791,-1.52328,127.862,0.0078125,-0.0078125,0.492188,-0.0078125,0,0,247,0
2017/01/13,14:16:53,53,204,-0.439026,0.898071,-0.00201416,0.026123,-2.58791,-1.52328,127.862,0.0078125,-0.0078125,0.484375,-0.0078125,0,0,247,0
2017/01/13,14:16:53,53,240,-0.439026,0.898071,-0.00201416,0.026123,-2.58791,-1.52328,127.862,0.0078125,-0.0078125,0.492188,-0.0078125,0,0,247,0
2017/01/13,14:16:53,53,257,-0.439026,0.898071,-0.00195312,0.026123,-2.59098,-1.517,127.862,0.0078125,-0.0078125,0.492188,-0.0078125,0,0,247,0
2017/01/13,14:16:53,53,307,-0.439026,0.898071,-0.00195312,0.026123,-2.59098,-1.517,127.862,0.0078125,-0.0078125,0.484375,-0.0078125,0,0,247,0
2017/01/13,14:16:53,53,308,-0.439026,0.898071,-0.00195312,0.026123,-2.59098,-1.517,127.862,0.0078125,-0.0078125,0.492188,-0.0078125,0,0,247,0
2017/01/13,14:16:53,53,357,-0.439026,0.898071,-0.00195312,0.026123,-2.59098,-1.517,127.862,0.0078125,-0.0078125,0.492188,-0.0078125,0,0,247,0
2017/01/13,14:16:53,53,358,-0.439026,0.898071,-0.00195312,0.026123,-2.59098,-1.517,127.862,0.0078125,-0.0078125,0.492188,-0.0078125,0,0,247,0
2017/01/13,14:16:53,53,390,-0.439026,0.898071,-0.00195312,0.026123,-2.59098,-1.517,127.862,0.0078125,-0.0078125,0.492188,-0.0078125,0,0,247,0
2017/01/13,14:16:53,53,423,-0.439026,0.898071,-0.00195312,0.026123,-2.59098,-1.517,127.862,0.0078125,-0.0078125,0.492188,-0.0078125,0,0,247,0
2017/01/13,14:16:53,53,424,-0.439026,0.898071,-0.00195312,0.026123,-2.59098,-1.517,127.862,0.0078125,-0.0078125,0.492188,-0.0078125,0,0,247,0
2017/01/13,14:16:53,53,457,-0.439026,0.898071,-0.00195312,0.026123,-2.59098,-1.517,127.862,0.0078125,-0.0078125,0.492188,-0.0078125,0,0,247,0
2017/01/13,14:16:53,53,490,-0.439026,0.898071,-0.00195312,0.026123,-2.59098,-1.517,127.862,0.0078125,-0.0078125,0.492188,-0.0078125,0,0,247,0
2017/01/13,14:16:53,53,523,-0.438965,0.898071,-0.00195312,0.026123,-2.591,-1.51689,127.868,0.0078125,-0.0078125,0.492188,-0.0078125,0,0,247,0
2017/01/13,14:16:53,53,558,-0.438965,0.898071,-0.00195312,0.026123,-2.591,-1.51689,127.868,0.0078125,-0.0078125,0.484375,-0.0078125,0,0,247,0
2017/01/13,14:16:53,53,573,-0.438965,0.898071,-0.00189209,0.026123,-2.59407,-1.51062,127.868,0.0078125,-0.0078125,0.492188,-0.0078125,-0.0078125,0,247,0
2017/01/13,14:16:53,53,574,-0.438965,0.898071,-0.00189209,0.026123,-2.59407,-1.51062,127.868,0.0078125,-0.0078125,0.492188,-0.0078125,-0.0078125,0,247,0
2017/01/13,14:16:53,53,607,-0.438965,0.898071,-0.00189209,0.026123,-2.59407,-1.51062,127.868,0.0078125,-0.0078125,0.492188,-0.0078125,0,0,247,0
2017/01/13,14:16:53,53,640,-0.438965,0.898071,-0.00189209,0.026123,-2.59407,-1.51062,127.868,0.0078125,-0.0078125,0.484375,-0.0078125,0,0,247,0
2017/01/13,14:16:53,53,656,-0.438965,0.898132,-0.00189209,0.026123,-2.59425,-1.51047,127.871,0.0078125,-0.0078125,0.492188,-0.0078125,-0.0078125,0,247,0
2017/01/13,14:16:53,53,690,-0.438965,0.898132,-0.00189209,0.026123,-2.59425,-1.51047,127.871,0.0078125,-0.0078125,0.492188,-0.0078125,0,0,247,0
2017/01/13,14:16:53,53,724,-0.438965,0.898132,-0.00189209,0.026123,-2.59425,-1.51047,127.871,0.0078125,-0.0078125,0.484375,-0.0078125,-0.0078125,0,247,0
2017/01/13,14:16:53,53,725,-0.438965,0.898132,-0.00189209,0.026123,-2.59425,-1.51047,127.871,0.0078125,-0.0078125,0.492188,-0.0078125,0,0,247,0
2017/01/13,14:16:53,53,756,-0.438904,0.898132,-0.00189209,0.026123,-2.59427,-1.51036,127.878,0.0078125,-0.0078125,0.492188,-0.0078125,-0.0078125,0,246,0
2017/01/13,14:16:53,53,791,-0.438904,0.898132,-0.00189209,0.026123,-2.59427,-1.51036,127.878,0.0078125,-0.0078125,0.492188,-0.0078125,0,0,246,0
2017/01/13,14:16:53,53,823,-0.438904,0.898132,-0.00189209,0.026123,-2.59427,-1.51036,127.878,0.0078125,-0.0078125,0.492188,-0.0078125,0,0,246,0
2017/01/13,14:16:53,53,840,-0.438904,0.898132,-0.00189209,0.026123,-2.59427,-1.51036,127.878,0.0078125,-0.0078125,0.492188,-0.0078125,0,0,246,0
2017/01/13,14:16:53,53,857,-0.438904,0.898132,-0.00189209,0.026062,-2.58798,-1.50728,127.878,0.0078125,-0.0078125,0.492188,-0.0078125,0,0,246,0
2017/01/13,14:16:53,53,882,-0.438904,0.898132,-0.00189209,0.026062,-2.58798,-1.50728,127.878,0.0078125,-0.0078125,0.492188,-0.0078125,0,0,246,0
2017/01/13,14:16:53,53,920,-0.438904,0.898132,-0.00189209,0.026062,-2.58798,-1.50728,127.878,0.0078125,-0.0078125,0.492188,-0.0078125,0,0,246,0
2017/01/13,14:16:53,53,937,-0.438904,0.898132,-0.00189209,0.026062,-2.58798,-1.50728,127.878,0.0078125,-0.0078125,0.492188,-0.0078125,0,0,246,0
2017/01/13,14:16:53,53,957,-0.438904,0.898132,-0.00189209,0.026062,-2.58798,-1.50728,127.878,0.0078125,-0.0078125,0.484375,-0.0078125,0,0,247,0
2017/01/13,14:16:53,53,987,-0.438904,0.898132,-0.00189209,0.026062,-2.58798,-1.50728,127.878,0.0078125,-0.0078125,0.492188,-0.0078125,0,0,247,0
2017/01/13,14:16:54,54,39,-0.438904,0.898132,-0.00183105,0.026062,-2.59105,-1.50099,127.878,0.0078125,-0.0078125,0.492188,-0.0078125,0,0,247,0
2017/01/13,14:16:54,54,40,-0.438904,0.898132,-0.00183105,0.026062,-2.59105,-1.50099,127.878,0.0078125,-0.0078125,0.492188,-0.0078125,0,0,247,0
2017/01/13,14:16:54,54,67,-0.438843,0.898132,-0.00189209,0.026123,-2.59428,-1.51025,127.884,0.0078125,-0.0078125,0.492188,-0.0078125,0,0,247,0
2017/01/13,14:16:54,54,107,-0.438843,0.898132,-0.00189209,0.026123,-2.59428,-1.51025,127.884,0.0078125,-0.0078125,0.492188,-0.0078125,0,0,247,0
2017/01/13,14:16:54,54,108,-0.438843,0.898132,-0.00189209,0.026123,-2.59428,-1.51025,127.884,0.0078125,-0.0078125,0.484375,-0.0078125,0,0,246,0
2017/01/13,14:16:54,54,140,-0.438843,0.898132,-0.00189209,0.026123,-2.59428,-1.51025,127.884,0.0078125,-0.0078125,0.492188,-0.0078125,0,0,246,0
2017/01/13,14:16:54,54,157,-0.438843,0.898193,-0.00189209,0.026123,-2.59446,-1.5101,127.887,0.0078125,-0.0078125,0.492188,-0.0078125,0,0,246,0
2017/01/13,14:16:54,54,173,-0.438843,0.898193,-0.00189209,0.026123,-2.59446,-1.5101,127.887,0.0078125,-0.0078125,0.492188,-0.0078125,-0.0078125,0,246,0
2017/01/13,14:16:54,54,207,-0.438843,0.898193,-0.00189209,0.026123,-2.59446,-1.5101,127.887,0.0078125,-0.0078125,0.492188,-0.0078125,0,0,246,0
2017/01/13,14:16:54,54,240,-0.438843,0.898193,-0.00189209,0.026123,-2.59446,-1.5101,127.887,0.0078125,-0.0078125,0.492188,-0.0078125,0,0,246,0
2017/01/13,14:16:54,54,258,-0.438843,0.898193,-0.00183105,0.026062,-2.59125,-1.50073,127.887,0.0078125,-0.0078125,0.492188,-0.0078125,0,0,247,0
2017/01/13,14:16:54,54,290,-0.438843,0.898193,-0.00183105,0.026062,-2.59125,-1.50073,127.887,0.0078125,-0.0078125,0.492188,-0.0078125,0,0,247,0
2017/01/13,14:16:54,54,307,-0.438782,0.898193,-0.00183105,0.026062,-2.59126,-1.50064,127.894,0.0078125,-0.0078125,0.492188,-0.0078125,0,0,247,0
2017/01/13,14:16:54,54,324,-0.438782,0.898193,-0.00183105,0.026062,-2.59126,-1.50064,127.894,0.0078125,-0.0078125,0.492188,-0.0078125,0,0,247,0
2017/01/13,14:16:54,54,358,-0.438782,0.898193,-0.00183105,0.026001,-2.58497,-1.49757,127.894,0.0078125,-0.0078125,0.492188,-0.0078125,0,0,247,0
2017/01/13,14:16:54,54,390,-0.438782,0.898193,-0.00183105,0.026001,-2.58497,-1.49757,127.894,0.0078125,-0.0078125,0.492188,-0.0078125,0,0,247,0
2017/01/13,14:16:54,54,407,-0.438782,0.898193,-0.00183105,0.026001,-2.58497,-1.49757,127.894,0.0078125,-0.0078125,0.484375,-0.0078125,0,0,247,0
2017/01/13,14:16:54,54,440,-0.438782,0.898193,-0.00183105,0.026001,-2.58497,-1.49757,127.894,0.0078125,-0.0078125,0.492188,-0.0078125,0,0,247,0
2017/01/13,14:16:54,54,457,-0.438782,0.898193,-0.00183105,0.026001,-2.58497,-1.49757,127.894,0.0078125,-0.0078125,0.484375,-0.0078125,0,0,247,0
2017/01/13,14:16:54,54,474,-0.438782,0.898193,-0.00183105,0.026001,-2.58497,-1.49757,127.894,0.0078125,-0.0078125,0.492188,-0.0078125,0,0,246,0
2017/01/13,14:16:54,54,507,-0.438721,0.898254,-0.00177002,0.026001,-2.58824,-1.49103,127.903,0.0078125,-0.0078125,0.484375,-0.0078125,0,0,246,0
2017/01/13,14:16:54,54,540,-0.438721,0.898254,-0.00177002,0.026001,-2.58824,-1.49103,127.903,0.0078125,-0.0078125,0.492188,-0.0078125,0,0,246,0
2017/01/13,14:16:54,54,556,-0.438721,0.898254,-0.00177002,0.026001,-2.58824,-1.49103,127.903,0.0078125,-0.0078125,0.492188,-0.0078125,0,0,246,0
2017/01/13,14:16:54,54,590,-0.438721,0.898254,-0.00177002,0.026001,-2.58824,-1.49103,127.903,0.0078125,-0.0078125,0.492188,-0.0078125,0,0,246,0
2017/01/13,14:16:54,54,607,-0.438721,0.898254,-0.00183105,0.026001,-2.58517,-1.49731,127.903,0.0078125,-0.0078125,0.492188,-0.0078125,0,0,246,0
2017/01/13,14:16:54,54,623,-0.438721,0.898254,-0.00183105,0.026001,-2.58517,-1.49731,127.903,0.0078125,-0.0078125,0.492188,-0.0078125,0,0,246,0
2017/01/13,14:16:54,54,673,-0.438721,0.898254,-0.00183105,0.026001,-2.58517,-1.49731,127.903,0.0078125,-0.0078125,0.492188,-0.0078125,-0.0078125,0,246,0
2017/01/13,14:16:54,54,720,-0.438721,0.898254,-0.00183105,0.026001,-2.58517,-1.49731,127.903,0.0078125,-0.0078125,0.492188,-0.0078125,0,0,246,0
2017/01/13,14:16:54,54,721,-0.43866,0.898254,-0.00183105,0.026001,-2.58518,-1.49721,127.909,0.0078125,-0.0078125,0.492188,-0.0078125,0,0,246,0
2017/01/13,14:16:54,54,739,-0.43866,0.898254,-0.00183105,0.026001,-2.58518,-1.49721,127.909,0.0078125,-0.0078125,0.492188,-0.0078125,0,0,246,0
2017/01/13,14:16:54,54,757,-0.43866,0.898254,-0.00183105,0.026001,-2.58518,-1.49721,127.909,0.0078125,-0.0078125,0.492188,-0.0078125,0,0,246,0
2017/01/13,14:16:54,54,773,-0.43866,0.898254,-0.00183105,0.026001,-2.58518,-1.49721,127.909,0.0078125,-0.0078125,0.492188,-0.0078125,0,0,246,0
2017/01/13,14:16:54,54,808,-0.43866,0.898254,-0.00183105,0.026001,-2.58518,-1.49721,127.909,0.0078125,-0.0078125,0.492188,-0.0078125,0,0,246,0
2017/01/13,14:16:54,54,840,-0.43866,0.898254,-0.00183105,0.026001,-2.58518,-1.49721,127.909,0.0078125,-0.0078125,0.492188,-0.0078125,0,0,246,0
2017/01/13,14:16:54,54,857,-0.43866,0.898254,-0.00183105,0.0259399,-2.57889,-1.49413,127.91,0.0078125,-0.0078125,0.492188,-0.0078125,0,0,246,0
2017/01/13,14:16:54,54,891,-0.43866,0.898254,-0.00183105,0.0259399,-2.57889,-1.49413,127.91,0.0078125,-0.0078125,0.492188,-0.0078125,-0.0078125,0,247,0
2017/01/13,14:16:54,54,924,-0.43866,0.898254,-0.00183105,0.0259399,-2.57889,-1.49413,127.91,0.0078125,-0.0078125,0.484375,-0.0078125,0,0,247,0
2017/01/13,14:16:54,54,940,-0.43866,0.898254,-0.00183105,0.0259399,-2.57889,-1.49413,127.91,0.0078125,-0.0078125,0.492188,-0.0078125,0,0,247,0
2017/01/13,14:16:54,54,957,-0.43866,0.898254,-0.00183105,0.0259399,-2.57889,-1.49413,127.91,0.0078125,-0.0078125,0.492188,-0.0078125,0,0,247,0
2017/01/13,14:16:55,55,7,-0.43866,0.898254,-0.00183105,0.0259399,-2.57889,-1.49413,127.91,0.0078125,-0.0078125,0.492188,-0.0078125,0,0,246,0
2017/01/13,14:16:55,55,9,-0.43866,0.898254,-0.00183105,0.0259399,-2.57889,-1.49413,127.91,0.0078125,-0.0078125,0.492188,-0.0078125,0,0,246,0
2017/01/13,14:16:55,55,40,-0.43866,0.898254,-0.00183105,0.0259399,-2.57889,-1.49413,127.91,0.0078125,-0.0078125,0.484375,-0.0078125,-0.0078125,0,246,0
2017/01/13,14:16:55,55,56,-0.43866,0.898254,-0.00189209,0.0258789,-2.56953,-1.49734,127.91,0.0078125,-0.0078125,0.492188,-0.0078125,0,0,246,0
2017/01/13,14:16:55,55,90,-0.43866,0.898254,-0.00189209,0.0258789,-2.56953,-1.49734,127.91,0.0078125,-0.0078125,0.492188,-0.0078125,-0.0078125,0,246,0
2017/01/13,14:16:55,55,106,-0.438599,0.898254,-0.00189209,0.0258789,-2.56954,-1.49724,127.916,0.0078125,-0.0078125,0.492188,-0.0078125,-0.0078125,0,246,0
2017/01/13,14:16:55,55,157,-0.438599,0.898254,-0.00189209,0.0258789,-2.56954,-1.49724,127.916,0.0078125,-0.0078125,0.492188,-0.0078125,-0.0078125,0,246,0
2017/01/13,14:16:55,55,158,-0.438599,0.898315,-0.00189209,0.0259399,-2.57601,-1.50017,127.919,0.0078125,-0.0078125,0.492188,-0.0078125,0,0,247,0
2017/01/13,14:16:55,55,190,-0.438599,0.898315,-0.00189209,0.0259399,-2.57601,-1.50017,127.919,0.0078125,-0.0078125,0.492188,-0.0078125,-0.0078125,0,247,0
2017/01/13,14:16:55,55,208,-0.438599,0.898315,-0.00189209,0.0259399,-2.57601,-1.50017,127.919,0.0078125,-0.0078125,0.484375,-0.0078125,-0.0078125,0,247,0
2017/01/13,14:16:55,55,223,-0.438599,0.898315,-0.00189209,0.0259399,-2.57601,-1.50017,127.919,0.0078125,-0.0078125,0.492188,-0.0078125,0,0,247,0
2017/01/13,14:16:55,55,256,-0.438538,0.898315,-0.00189209,0.026001,-2.58232,-1.50314,127.925,0.0078125,-0.0078125,0.492188,-0.0078125,0,0,247,0
2017/01/13,14:16:55,55,291,-0.438538,0.898315,-0.00189209,0.026001,-2.58232,-1.50314,127.925,0.0078125,-0.0078125,0.492188,-0.0078125,0,0,247,0
2017/01/13,14:16:55,55,306,-0.438538,0.898315,-0.00189209,0.026001,-2.58232,-1.50314,127.925,0.0078125,-0.0078125,0.492188,-0.0078125,0,0,247,0
2017/01/13,14:16:55,55,340,-0.438538,0.898315,-0.00189209,0.026001,-2.58232,-1.50314,127.925,0.0078125,-0.0078125,0.492188,-0.0078125,0,0,247,0
2017/01/13,14:16:55,55,356,-0.438538,0.898315,-0.00189209,0.026001,-2.58232,-1.50314,127.925,0.0078125,-0.0078125,0.484375,-0.0078125,0,0,247,0
2017/01/13,14:16:55,55,373,-0.438538,0.898315,-0.00189209,0.026001,-2.58232,-1.50314,127.925,0.0078125,-0.0078125,0.492188,-0.0078125,-0.0078125,0,246,0
2017/01/13,14:16:55,55,407,-0.438477,0.898315,-0.00183105,0.026123,-2.59798,-1.5029,127.931,0.0078125,-0.0078125,0.484375,-0.0078125,-0.0078125,0,246,0
2017/01/13,14:16:55,55,440,-0.438477,0.898315,-0.00183105,0.026123,-2.59798,-1.5029,127.931,0.0078125,-0.0078125,0.492188,-0.0078125,-0.0078125,0,246,0
2017/01/13,14:16:55,55,457,-0.438477,0.898315,-0.00189209,0.026123,-2.59491,-1.5092,127.931,0.0078125,-0.0078125,0.492188,-0.0078125,-0.0078125,0,246,0
2017/01/13,14:16:55,55,491,-0.438477,0.898315,-0.00189209,0.026123,-2.59491,-1.5092,127.931,0.0078125,-0.0078125,0.484375,-0.0078125,0,0,246,0
2017/01/13,14:16:55,55,507,-0.438477,0.898376,-0.00189209,0.0261841,-2.60138,-1.5121,127.934,0.0078125,-0.0078125,0.492188,-0.0078125,0,0,246,0
2017/01/13,14:16:55,55,557,-0.438477,0.898376,-0.00189209,0.0261841,-2.60138,-1.5121,127.934,0.0078125,-0.0078125,0.492188,-0.0078125,0,0,246,0
2017/01/13,14:16:55,55,558,-0.438416,0.898376,-0.00189209,0.026062,-2.58881,-1.50586,127.94,0.0078125,-0.0078125,0.492188,-0.0078125,0,0,246,0
2017/01/13,14:16:55,55,607,-0.438416,0.898376,-0.00189209,0.026062,-2.58881,-1.50586,127.94,0.0078125,-0.0078125,0.492188,-0.0078125,0,0,247,0
2017/01/13,14:16:55,55,608,-0.438293,0.898438,-0.00189209,0.0258789,-2.57015,-1.49629,127.957,0.0078125,0,0.492188,-0.0078125,0,0,247,0
2017/01/13,14:16:55,55,657,-0.438293,0.898438,-0.00189209,0.0258789,-2.57015,-1.49629,127.957,0.0078125,-0.0078125,0.492188,-0.0078125,0,0,247,0
2017/01/13,14:16:55,55,658,-0.438354,0.898438,-0.00164795,0.026001,-2.595,-1.47737,127.95,0,0,0.5,-0.0078125,0,0,247,0
2017/01/13,14:16:55,55,674,-0.438354,0.898438,-0.00164795,0.026001,-2.595,-1.47737,127.95,0.0546875,0,0.609375,-0.015625,-0.0078125,0,247,0
2017/01/13,14:16:55,55,706,-0.437622,0.898438,-0.000793457,0.0360107,-3.67015,-1.89177,127.999,0,-0.015625,0.671875,-0.046875,-0.015625,0,247,0
2017/01/13,14:16:55,55,740,-0.437622,0.898438,-0.000793457,0.0360107,-3.67015,-1.89177,127.999,-0.015625,-0.03125,0.664062,-0.0625,-0.0234375,0,247,0
2017/01/13,14:16:55,55,790,-0.436279,0.895752,0.00628662,0.0848389,-9.06034,-3.64421,127.774,0,-0.0546875,0.664062,-0.0859375,-0.0234375,-0.0078125,247,0
2017/01/13,14:16:55,55,791,-0.436279,0.895752,0.00628662,0.0848389,-9.06034,-3.64421,127.774,0.0078125,-0.046875,0.679688,-0.09375,-0.03125,-0.0078125,248,0
2017/01/13,14:16:55,55,859,-0.436096,0.885986,0.0178223,0.156494,-17.0285,-6.29962,126.642,0.0234375,0.101562,0.609375,-0.0859375,-0.0703125,-0.0078125,249,0
2017/01/13,14:16:55,55,860,-0.436096,0.885986,0.0178223,0.156494,-17.0285,-6.29962,126.642,-0.492188,0.375,0.539062,-0.0625,-0.09375,0.015625,249,0
2017/01/13,14:16:55,55,886,-0.414795,0.884583,-0.0115356,0.212769,-21.5217,-12.2215,127.423,-0.585938,0.414062,0.546875,-0.0390625,-0.0546875,0.03125,251,0
2017/01/13,14:16:55,55,888,-0.414795,0.884583,-0.0115356,0.212769,-21.5217,-12.2215,127.423,-0.101562,0.289062,0.320312,0.015625,0.0390625,0.046875,254,0
2017/01/13,14:16:55,55,919,-0.386902,0.905884,0.0213623,0.170898,-19.0358,-5.67879,132.793,-0.117188,0.28125,0.359375,0.015625,0.0234375,0.0390625,255,0
2017/01/13,14:16:55,55,937,-0.386902,0.905884,0.0213623,0.170898,-19.0358,-5.67879,132.793,-0.0625,0.234375,0.414062,0.03125,0.03125,0.0234375,258,0
2017/01/13,14:16:55,55,990,-0.368591,0.921082,0.0413818,0.118347,-14.39,-0.651382,136.298,0.0078125,0.179688,0.460938,0.0390625,0.03125,0.0078125,262,0
2017/01/13,14:16:55,55,991,-0.368591,0.921082,0.0413818,0.118347,-14.39,-0.651382,136.298,0,0.117188,0.523438,0.046875,0.0234375,0,267,0
2017/01/13,14:16:56,56,8,-0.367798,0.92688,0.046875,0.0576782,-8.12902,2.57475,136.895,-0.015625,0.0390625,0.578125,0.0546875,0.0234375,0,273,0
2017/01/13,14:16:56,56,40,-0.367798,0.92688,0.046875,0.0576782,-8.12902,2.57475,136.895,-0.03125,-0.015625,0.640625,0.0625,0.0234375,0,278,0
2017/01/13,14:16:56,56,73,-0.367126,0.928955,0.0471191,-0.00671387,-1.26769,5.30716,136.931,-0.046875,-0.0703125,0.6875,0.0703125,0.03125,0.0078125,281,0
2017/01/13,14:16:56,56,90,-0.367126,0.928955,0.0471191,-0.00671387,-1.26769,5.30716,136.931,-0.0234375,-0.15625,0.671875,0.078125,0.03125,0.015625,282,0
2017/01/13,14:16:56,56,107,-0.356812,0.929871,0.0476074,-0.0754395,6.10346,8.23274,137.575,0,-0.21875,0.648438,0.0703125,0.0234375,0.0234375,281,0
2017/01/13,14:16:56,56,141,-0.356812,0.929871,0.0476074,-0.0754395,6.10346,8.23274,137.575,0.015625,-0.234375,0.617188,0.0625,0.0234375,0.0234375,278,0
2017/01/13,14:16:56,56,173,-0.336548,0.93219,0.0463867,-0.124878,11.6304,10.0271,139.274,0.0234375,-0.265625,0.5625,0.0546875,0.015625,0.0234375,274,0
2017/01/13,14:16:56,56,190,-0.336548,0.93219,0.0463867,-0.124878,11.6304,10.0271,139.274,0.015625,-0.320312,0.492188,0.046875,0.0078125,0.015625,267,0
2017/01/13,14:16:56,56,240,-0.321045,0.933289,0.0422363,-0.155273,15.2309,10.6634,140.604,0.03125,-0.414062,0.40625,0.03125,0.0078125,0.0078125,259,0
2017/01/13,14:16:56,56,241,-0.321045,0.933289,0.0422363,-0.155273,15.2309,10.6634,140.604,0.0546875,-0.460938,0.375,0.015625,0.0078125,0,251,0
2017/01/13,14:16:56,56,274,-0.31665,0.934143,0.0458984,-0.158081,15.4426,11.1179,141.037,0.125,-0.476562,0.351562,0,0.0078125,0,244,0
2017/01/13,14:16:56,56,291,-0.31665,0.934143,0.0458984,-0.158081,15.4426,11.1179,141.037,0.148438,-0.445312,0.367188,-0.015625,-0.0078125,0,239,0
2017/01/13,14:16:56,56,306,-0.316833,0.938049,0.0482178,-0.13147,12.4798,10.2526,141.55,-0.109375,0.101562,0.429688,-0.0625,-0.0625,0,236,0
2017/01/13,14:16:56,56,356,-0.316833,0.938049,0.0482178,-0.13147,12.4798,10.2526,141.55,-0.1875,0.148438,0.632812,-0.0703125,-0.101562,-0.015625,233,0.0373038
2017/01/13,14:16:56,56,390,-0.333557,0.941528,-0.00195312,-0.0473633,5.19184,1.60646,140.912,0.0546875,0.0078125,0.867188,-0.109375,-0.0078125,0,233,0
2017/01/13,14:16:56,56,391,-0.333557,0.941528,-0.00195312,-0.0473633,5.19184,1.60646,140.912,-0.0546875,0.03125,0.648438,-0.0625,-0.0234375,-0.0078125,233,0
2017/01/13,14:16:56,56,407,-0.334167,0.942322,0.00537109,0.0181885,-2.17022,-0.116592,140.947,0.03125,0.0234375,0.523438,-0.0234375,-0.015625,0,233,0
2017/01/13,14:16:56,56,440,-0.334167,0.942322,0.00537109,0.0181885,-2.17022,-0.116592,140.947,-0.0078125,0.0078125,0.492188,-0.0078125,0,0,233,0
2017/01/13,14:16:56,56,457,-0.333801,0.942261,0.00439453,0.0254517,-2.9175,-0.499725,140.973,-0.0078125,0,0.492188,-0.0078125,0,0,235,0
2017/01/13,14:16:56,56,490,-0.333801,0.942261,0.00439453,0.0254517,-2.9175,-0.499725,140.973,-0.0078125,0,0.492188,-0.0078125,0,0,237,0
2017/01/13,14:16:56,56,523,-0.33374,0.942261,0.00543213,0.0264893,-3.06939,-0.427139,140.981,-0.0078125,0,0.492188,-0.0078125,0,0,238,0
2017/01/13,14:16:56,56,540,-0.33374,0.942261,0.00543213,0.0264893,-3.06939,-0.427139,140.981,-0.0078125,0,0.492188,-0.0078125,0,0,239,0
2017/01/13,14:16:56,56,606,-0.333801,0.9422,0.00604248,0.0266724,-3.11243,-0.368423,140.974,-0.0078125,0,0.492188,-0.0078125,-0.0078125,0,239,0
2017/01/13,14:16:56,56,607,-0.333801,0.9422,0.00604248,0.0266724,-3.11243,-0.368423,140.974,-0.0078125,0,0.484375,-0.0078125,-0.0078125,0,240,0
2017/01/13,14:16:56,56,624,-0.334045,0.942139,0.00598145,0.0266724,-3.11007,-0.375793,140.945,-0.0078125,0,0.492188,-0.0078125,-0.0078125,0,240,0
2017/01/13,14:16:56,56,641,-0.334045,0.942139,0.00598145,0.0266724,-3.11007,-0.375793,140.945,-0.0078125,0,0.492188,-0.0078125,0,0,240,0
2017/01/13,14:16:56,56,690,-0.334167,0.942078,0.00610352,0.0265503,-3.10145,-0.358337,140.93,-0.0078125,0,0.492188,-0.0078125,-0.0078125,0,240,0
2017/01/13,14:16:56,56,691,-0.334167,0.942078,0.00610352,0.0265503,-3.10145,-0.358337,140.93,-0.0078125,0,0.492188,-0.0078125,-0.0078125,0,240,0
2017/01/13,14:16:56,56,706,-0.334351,0.942078,0.00598145,0.0264282,-3.0837,-0.367371,140.91,-0.0078125,0,0.492188,-0.0078125,-0.0078125,0,240,0
2017/01/13,14:16:56,56,740,-0.334351,0.942078,0.00598145,0.0264282,-3.0837,-0.367371,140.91,-0.0078125,0,0.492188,-0.0078125,-0.0078125,0,241,0
2017/01/13,14:16:56,56,757,-0.334473,0.942017,0.00549316,0.0263672,-3.05826,-0.418228,140.893,-0.0078125,0,0.492188,-0.0078125,-0.0078125,0,241,0
2017/01/13,14:16:56,56,792,-0.334473,0.942017,0.00549316,0.0263672,-3.05826,-0.418228,140.893,-0.0078125,0,0.492188,-0.0078125,0,0,241,0
2017/01/13,14:16:56,56,912,-0.334595,0.941956,0.00543213,0.026123,-3.02941,-0.415878,140.878,-0.0078125,0,0.492188,-0.0078125,0,0,241,0
2017/01/13,14:16:56,56,913,-0.334595,0.941956,0.00543213,0.026123,-3.02941,-0.415878,140.878,-0.0078125,-0.0078125,0.492188,-0.0078125,0,0,241,0
2017/01/13,14:16:56,56,937,-0.334717,0.941956,0.0055542,0.0258179,-3.00119,-0.391281,140.865,-0.0078125,0,0.492188,-0.0078125,0,0,241,0
2017/01/13,14:16:56,56,938,-0.334717,0.941956,0.0055542,0.0258179,-3.00119,-0.391281,140.865,-0.0078125,0,0.492188,-0.0078125,0,0,241,0
2017/01/13,14:16:56,56,939,-0.3349,0.941895,0.0057373,0.0255737,-2.98178,-0.362671,140.844,-0.0078125,0,0.492188,-0.0078125,0,0,241,0
2017/01/13,14:16:56,56,937,-0.3349,0.941895,0.0057373,0.0255737,-2.98178,-0.362671,140.844,-0.0078125,0,0.484375,-0.0078125,0,-0.0078125,241,0
2017/01/13,14:16:56,56,990,-0.335632,0.941589,0.00610352,0.0255127,-2.98887,-0.323151,140.754,-0.0078125,0,0.492188,-0.0078125,0,-0.0078125,241,0
2017/01/13,14:16:56,56,991,-0.335632,0.941589,0.00610352,0.0255127,-2.98887,-0.323151,140.754,-0.0078125,-0.0078125,0.5,-0.0078125,0,-0.0078125,241,0
2017/01/13,14:16:57,57,7,-0.336731,0.941162,0.00720215,0.0269165,-3.18247,-0.262283,140.62,-0.0078125,-0.0078125,0.5,-0.015625,0,-0.0078125,241,0
2017/01/13,14:16:57,57,40,-0.336731,0.941162,0.00720215,0.0269165,-3.18247,-0.262283,140.62,-0.0078125,-0.0078125,0.5,-0.015625,0,0,240,0
2017/01/13,14:16:57,57,58,-0.337524,0.940552,0.0125732,0.03479,-4.23982,0.00956726,140.519,-0.0078125,-0.015625,0.507812,-0.0234375,0,0,241,0
2017/01/13,14:16:57,57,89,-0.337524,0.940552,0.0125732,0.03479,-4.23982,0.00956726,140.519,-0.0546875,-0.0546875,0.515625,-0.0234375,0,0,241,0
2017/01/13,14:16:57,57,124,-0.337952,0.939636,0.022644,0.0478516,-6.04049,0.588394,140.468,-0.0234375,-0.046875,0.523438,-0.03125,0,-0.0078125,241,0
2017/01/13,14:16:57,57,140,-0.337952,0.939636,0.022644,0.0478516,-6.04049,0.588394,140.468,-0.0234375,-0.046875,0.515625,-0.03125,0,-0.0078125,241,0
2017/01/13,14:16:57,57,157,-0.338806,0.937866,0.032959,0.0667725,-8.48675,0.960388,140.347,-0.0078125,-0.0546875,0.554688,-0.03125,0,-0.0078125,243,0
2017/01/13,14:16:57,57,223,-0.338806,0.937866,0.032959,0.0667725,-8.48675,0.960388,140.347,-0.0625,-0.0703125,0.601562,-0.046875,-0.0078125,0,245,0
2017/01/13,14:16:57,57,224,-0.338257,0.935242,0.043335,0.0949097,-11.9374,0.986816,140.335,0,-0.09375,0.601562,-0.0625,-0.0078125,-0.0078125,246,0
2017/01/13,14:16:57,57,240,-0.338257,0.935242,0.043335,0.0949097,-11.9374,0.986816,140.335,-0.0234375,-0.132812,0.625,-0.078125,-0.0078125,-0.0078125,249,0
2017/01/13,14:16:57,57,270,-0.337646,0.927979,0.0578613,0.146484,-18.116,0.510544,140.093,-0.015625,-0.140625,0.664062,-0.09375,-0.0078125,-0.0078125,251,0
2017/01/13,14:16:57,57,289,-0.337646,0.927979,0.0578613,0.146484,-18.116,0.510544,140.093,-0.0625,-0.1875,0.875,-0.117188,-0.0078125,-0.0078125,254,0
2017/01/13,14:16:57,57,307,-0.334412,0.911743,0.0820923,0.223816,-27.5828,6.10352E-05,139.716,-0.078125,-0.226562,0.96875,-0.148438,-0.015625,-0.015625,259,0
2017/01/13,14:16:57,57,340,-0.334412,0.911743,0.0820923,0.223816,-27.5828,6.10352E-05,139.716,-0.125,-0.210938,0.992188,-0.15625,-0.015625,-0.015625,264,0
2017/01/13,14:16:57,57,357,-0.330688,0.877319,0.113953,0.328491,-40.6736,-1.308,138.209,-0.210938,-0.0546875,0.96875,-0.164062,0,-0.0234375,270,0
2017/01/13,14:16:57,57,391,-0.330688,0.877319,0.113953,0.328491,-40.6736,-1.308,138.209,-0.21875,0.25,0.59375,-0.179688,0.0234375,-0.0390625,277,0
2017/01/13,14:16:57,57,425,-0.338196,0.821899,0.161438,0.428955,-54.5193,-2.44615,134.007,-0.117188,0.789062,0.242188,-0.117188,0.0234375,-0.0546875,284,0.0737776
2017/01/13,14:16:57,57,441,-0.338196,0.821899,0.161438,0.428955,-54.5193,-2.44615,134.007,-0.078125,0.640625,0.710938,-0.015625,0.0234375,-0.046875,291,0
2017/01/13,14:16:57,57,456,-0.378479,0.80542,0.161926,0.426331,-54.0297,-6.04846,126.575,0.0234375,0.101562,0.304688,0.078125,-0.0234375,-0.015625,298,0
2017/01/13,14:16:57,57,507,-0.378479,0.80542,0.161926,0.426331,-54.0297,-6.04846,126.575,-0.046875,0.117188,0.265625,0.0703125,-0.03125,-0.0078125,304,0
2017/01/13,14:16:57,57,524,-0.388977,0.837463,0.112915,0.36676,-44.5989,-7.7659,126.984,-0.1875,0.117188,0.320312,0.0859375,-0.0078125,0.0078125,309,0
2017/01/13,14:16:57,57,540,-0.388977,0.837463,0.112915,0.36676,-44.5989,-7.7659,126.984,-0.125,0.046875,0.398438,0.101562,0.015625,0.015625,312,0
2017/01/13,14:16:57,57,573,-0.388,0.873474,0.0899048,0.279968,-33.9767,-4.16298,130.826,-0.09375,-0.0234375,0.460938,0.109375,0.015625,0.0234375,313,0
2017/01/13,14:16:57,57,590,-0.388,0.873474,0.0899048,0.279968,-33.9767,-4.16298,130.826,-0.15625,-0.078125,0.546875,0.109375,0.0078125,0.0234375,312,0
2017/01/13,14:16:57,57,607,-0.378479,0.905579,0.0698853,0.178284,-22.0738,-0.518127,134.535,-0.171875,-0.140625,0.625,0.109375,0.015625,0.0234375,310,0
2017/01/13,14:16:57,57,641,-0.378479,0.905579,0.0698853,0.178284,-22.0738,-0.518127,134.535,-0.15625,-0.15625,0.742188,0.109375,0.0234375,0.0234375,304,0
2017/01/13,14:16:57,57,657,-0.365479,0.92572,0.0603027,0.0764771,-10.7003,3.25218,137.216,-0.179688,-0.210938,0.867188,0.109375,0.0234375,0.0234375,296,0
2017/01/13,14:16:57,57,690,-0.365479,0.92572,0.0603027,0.0764771,-10.7003,3.25218,137.216,-0.195312,-0.28125,0.953125,0.125,0.03125,0.0234375,284,0
2017/01/13,14:16:57,57,740,-0.350159,0.934631,0.0536499,-0.0299683,1.05697,6.9673,138.859,-0.132812,-0.460938,0.921875,0.132812,0.03125,0.0234375,273,0
2017/01/13,14:16:57,57,741,-0.350159,0.934631,0.0536499,-0.0299683,1.05697,6.9673,138.859,-0.0703125,-0.53125,0.84375,0.117188,0.0390625,0.03125,262,0
2017/01/13,14:16:57,57,757,-0.3302,0.934021,0.0527954,-0.125488,11.5107,10.6745,139.981,0.0078125,-0.523438,0.742188,0.09375,0.0390625,0.03125,249,0
2017/01/13,14:16:57,57,790,-0.3302,0.934021,0.0527954,-0.125488,11.5107,10.6745,139.981,0.132812,-0.679688,0.625,0.078125,0.03125,0.015625,239,0
2017/01/13,14:16:57,57,807,-0.311584,0.930725,0.0568848,-0.182617,17.7271,13.336,140.892,0.148438,-0.734375,0.476562,0.0546875,0.015625,0.0078125,228,0
2017/01/13,14:16:57,57,837,-0.311584,0.930725,0.0568848,-0.182617,17.7271,13.336,140.892,0.171875,-0.765625,0.351562,0.03125,0.0078125,0,220,0
2017/01/13,14:16:57,57,890,-0.309753,0.929688,0.057312,-0.190796,18.6179,13.7206,140.886,0.164062,-0.6875,0.328125,0,-0.0078125,0,214,0
2017/01/13,14:16:57,57,891,-0.309753,0.929688,0.057312,-0.190796,18.6179,13.7206,140.886,0.171875,-0.523438,0.375,-0.0234375,-0.0078125,0,211,0
2017/01/13,14:16:57,57,916,-0.310303,0.936035,0.0552368,-0.156372,14.9787,11.9767,141.738,0.15625,-0.398438,0.382812,-0.03125,-0.0234375,0.0078125,208,0
2017/01/13,14:16:58,58,20,-0.310303,0.936035,0.0552368,-0.156372,14.9787,11.9767,141.738,-0.515625,0.679688,0.4375,-0.0625,-0.0546875,0,204,0.114617
2017/01/13,14:16:58,58,21,-0.309509,0.944641,0.0305176,-0.104065,10.2368,7.12656,143.078,-0.367188,-0.0546875,0.414062,-0.109375,-0.117188,-0.0234375,204,0
2017/01/13,14:16:58,58,22,-0.309509,0.944641,0.0305176,-0.104065,10.2368,7.12656,143.078,0.140625,-0.0234375,0.992188,-0.140625,-0.015625,0.0078125,203,0
2017/01/13,14:16:58,58,20,-0.316406,0.948425,0.0106201,0.0142212,-1.93101,0.639008,143.112,0.0234375,0.0390625,0.765625,-0.046875,-0.0390625,-0.0078125,203,0
2017/01/13,14:16:58,58,21,-0.316406,0.948425,0.0106201,0.0142212,-1.93101,0.639008,143.112,0,-0.015625,0.515625,-0.0078125,-0.015625,-0.0078125,203,0
2017/01/13,14:16:58,58,53,-0.319458,0.946716,-0.000671387,0.0401611,-4.33647,-1.54773,142.649,0,0,0.492188,-0.0078125,0,0,203,0
2017/01/13,14:16:58,58,91,-0.319458,0.946716,-0.000671387,0.0401611,-4.33647,-1.54773,142.649,0,0,0.492188,-0.0078125,0,0,203,0
2017/01/13,14:16:58,58,124,-0.319153,0.946838,-0.00012207,0.0401001,-4.35056,-1.48428,142.689,0,0,0.492188,-0.0078125,0,0,204,0
2017/01/13,14:16:58,58,141,-0.319153,0.946838,-0.00012207,0.0401001,-4.35056,-1.48428,142.689,0,0,0.492188,-0.0078125,0,0,204,0
2017/01/13,14:16:58,58,173,-0.319031,0.946899,0.00012207,0.0394897,-4.29338,-1.43466,142.707,0,0,0.484375,-0.0078125,-0.0078125,0,204,0
2017/01/13,14:16:58,58,191,-0.319031,0.946899,0.00012207,0.0394897,-4.29338,-1.43466,142.707,0,0,0.492188,-0.0078125,0,0,204,0
2017/01/13,14:16:58,58,240,-0.319031,0.946899,0.000427246,0.0394897,-4.30457,-1.40147,142.708,0,-0.0078125,0.484375,-0.0078125,0,0,204,0
2017/01/13,14:16:58,58,241,-0.319031,0.946899,0.000427246,0.0394897,-4.30457,-1.40147,142.708,0,0,0.492188,-0.0078125,0,0,204,0
2017/01/13,14:16:58,58,257,-0.319153,0.946899,0.000793457,0.0388184,-4.24495,-1.33739,142.698,0,-0.0078125,0.492188,-0.0078125,0,0,204,0
2017/01/13,14:16:58,58,290,-0.319153,0.946899,0.000793457,0.0388184,-4.24495,-1.33739,142.698,0,0,0.492188,-0.0078125,0,0,204,0
2017/01/13,14:16:58,58,324,-0.319214,0.946899,0.0012207,0.0380859,-4.18094,-1.26421,142.694,0,0,0.484375,-0.0078125,0,0,204,0
2017/01/13,14:16:58,58,340,-0.319214,0.946899,0.0012207,0.0380859,-4.18094,-1.26421,142.694,0,-0.0078125,0.492188,-0.0078125,0,0,204,0
2017/01/13,14:16:58,58,365,-0.319336,0.946899,0.00134277,0.0374756,-4.11903,-1.22893,142.683,0,0,0.492188,-0.0078125,0,0,204,0
2017/01/13,14:16:58,58,387,-0.319336,0.946899,0.00134277,0.0374756,-4.11903,-1.22893,142.683,0,0,0.492188,-0.0078125,-0.0078125,0,204,0
2017/01/13,14:16:58,58,407,-0.319397,0.946899,0.00134277,0.0368652,-4.05265,-1.20668,142.678,0,-0.0078125,0.492188,-0.0078125,-0.0078125,0,204,0
2017/01/13,14:16:58,58,440,-0.319397,0.946899,0.00134277,0.0368652,-4.05265,-1.20668,142.678,0,0,0.492188,-0.0078125,-0.0078125,0,204,0
2017/01/13,14:16:58,58,473,-0.319458,0.946899,0.00128174,0.0363159,-3.99067,-1.19334,142.672,0,0,0.492188,-0.0078125,0,0,204,0
2017/01/13,14:16:58,58,491,-0.319458,0.946899,0.00128174,0.0363159,-3.99067,-1.19334,142.672,0,0,0.492188,-0.0078125,0,0,204,0
2017/01/13,14:16:58,58,540,-0.31958,0.946899,0.00128174,0.0357056,-3.9243,-1.17131,142.661,0,-0.0078125,0.492188,-0.0078125,0,0,204,0
2017/01/13,14:16:58,58,541,-0.31958,0.946899,0.00128174,0.0357056,-3.9243,-1.17131,142.661,0,0,0.492188,-0.0078125,0,0,204,0
2017/01/13,14:16:58,58,574,-0.319702,0.946838,0.00152588,0.0352173,-3.87993,-1.12735,142.647,0,0,0.492188,-0.0078125,0,0,204,0
2017/01/13,14:16:58,58,591,-0.319702,0.946838,0.00152588,0.0352173,-3.87993,-1.12735,142.647,0,0,0.492188,-0.0078125,0,0,204,0
2017/01/13,14:16:58,58,640,-0.319824,0.946838,0.00177002,0.03479,-3.84246,-1.08548,142.636,0,0,0.492188,-0.0078125,0,0,204,0
2017/01/13,14:16:58,58,641,-0.319824,0.946838,0.00177002,0.03479,-3.84246,-1.08548,142.636,0,-0.0078125,0.492188,-0.0078125,0,0,204,0
2017/01/13,14:16:58,58,657,-0.320129,0.946716,0.00213623,0.0346069,-3.83559,-1.04021,142.6,0,-0.0078125,0.492188,-0.0078125,0,0,204,0
2017/01/13,14:16:58,58,690,-0.320129,0.946716,0.00213623,0.0346069,-3.83559,-1.04021,142.6,-0.0078125,0,0.523438,-0.0078125,0,-0.0078125,204,0
2017/01/13,14:16:58,58,707,-0.32074,0.946411,0.00445557,0.0366821,-4.14558,-0.867371,142.525,0.015625,-0.0078125,0.554688,-0.0234375,0,-0.0078125,204,0
2017/01/13,14:16:58,58,740,-0.32074,0.946411,0.00445557,0.0366821,-4.14558,-0.867371,142.525,-0.0078125,-0.0234375,0.523438,-0.03125,0.0078125,-0.0078125,204,0
2017/01/13,14:16:58,58,773,-0.321716,0.945251,0.0153198,0.0519409,-6.20302,-0.256958,142.394,-0.015625,-0.0234375,0.523438,-0.0390625,0.0078125,0,204,0
2017/01/13,14:16:58,58,774,-0.321716,0.945251,0.0153198,0.0519409,-6.20302,-0.256958,142.394,-0.0078125,-0.046875,0.609375,-0.046875,0,0,206,0
2017/01/13,14:16:58,58,807,-0.321472,0.942932,0.0309448,0.0809937,-9.94128,0.365509,142.38,-0.0390625,-0.0625,0.632812,-0.0625,-0.0078125,-0.0078125,206,0
2017/01/13,14:16:58,58,840,-0.321472,0.942932,0.0309448,0.0809937,-9.94128,0.365509,142.38,0.0078125,-0.09375,0.65625,-0.0859375,-0.0078125,-0.0078125,206,0
2017/01/13,14:16:58,58,857,-0.321106,0.936035,0.0473022,0.135803,-16.5356,0.0800171,142.143,-0.015625,-0.125,0.703125,-0.101562,-0.0078125,-0.0078125,206,0
2017/01/13,14:16:58,58,891,-0.321106,0.936035,0.0473022,0.135803,-16.5356,0.0800171,142.143,-0.09375,-0.164062,0.828125,-0.125,-0.0078125,-0.0078125,206,0
2017/01/13,14:16:58,58,991,-0.317139,0.919739,0.0726318,0.219421,-26.7238,-0.3573,141.865,-0.0703125,-0.203125,0.984375,-0.148438,-0.0078125,-0.015625,207,0
2017/01/13,14:16:58,58,992,-0.317139,0.919739,0.0726318,0.219421,-26.7238,-0.3573,141.865,-0.21875,-0.164062,0.953125,-0.164062,-0.0078125,-0.0234375,208,0
2017/01/13,14:16:58,58,993,-0.316101,0.883789,0.107544,0.327637,-40.3243,-1.28091,140.169,-0.164062,-0.0625,0.875,-0.164062,0.0078125,-0.03125,209,0
2017/01/13,14:16:59,59,26,-0.316101,0.883789,0.107544,0.327637,-40.3243,-1.28091,140.169,-0.164062,0.171875,0.570312,-0.1875,0.0078125,-0.046875,211,0
2017/01/13,14:16:59,59,36,-0.327087,0.823975,0.149414,0.437866,-55.0172,-4.02246,134.602,-0.257812,0.765625,0.242188,-0.171875,0.0078125,-0.0625,214,0
2017/01/13,14:16:59,59,38,-0.327087,0.823975,0.149414,0.437866,-55.0172,-4.02246,134.602,-0.171875,0.632812,0.507812,-0.0546875,0.0234375,-0.0546875,217,0.0793448
2017/01/13,14:16:59,59,74,-0.365173,0.794922,0.158997,0.457581,-57.5227,-8.72328,125.858,0.09375,0.09375,0.296875,0.09375,0,-0.015625,220,0
2017/01/13,14:16:59,59,90,-0.365173,0.794922,0.158997,0.457581,-57.5227,-8.72328,125.858,-0.0234375,0.0078125,0.1875,0.078125,-0.0390625,0.0078125,220,0
2017/01/13,14:16:59,59,107,-0.375366,0.833069,0.112915,0.390198,-47.2981,-8.89154,127.588,-0.148438,0.0234375,0.265625,0.0703125,-0.0234375,0.015625,220,0
2017/01/13,14:16:59,59,140,-0.375366,0.833069,0.112915,0.390198,-47.2981,-8.89154,127.588,-0.101562,0.0390625,0.367188,0.078125,0.0078125,0.0234375,217,0
2017/01/13,14:16:59,59,190,-0.363159,0.869568,0.0934448,0.321167,-38.7868,-5.20885,132.831,-0.03125,0.015625,0.4375,0.101562,0.0078125,0.03125,214,0
2017/01/13,14:16:59,59,191,-0.363159,0.869568,0.0934448,0.321167,-38.7868,-5.20885,132.831,-0.09375,-0.0859375,0.476562,0.109375,-0.0078125,0.0390625,209,0
2017/01/13,14:16:59,59,224,-0.345215,0.90863,0.0706177,0.223938,-27.1106,-1.69218,137.986,-0.179688,-0.164062,0.523438,0.109375,-0.0078125,0.03125,203,0
2017/01/13,14:16:59,59,240,-0.345215,0.90863,0.0706177,0.223938,-27.1106,-1.69218,137.986,-0.226562,-0.164062,0.617188,0.101562,-0.0078125,0.03125,196,0
2017/01/13,14:16:59,59,256,-0.320068,0.936829,0.0480957,0.132446,-16.1974,0.318085,142.32,-0.304688,-0.171875,0.757812,0.101562,0,0.0234375,194,0
2017/01/13,14:16:59,59,291,-0.320068,0.936829,0.0480957,0.132446,-16.1974,0.318085,142.32,-0.304688,-0.265625,0.84375,0.117188,0.015625,0.0234375,200,0
2017/01/13,14:16:59,59,323,-0.302002,0.951782,0.0420532,0.0331421,-5.07665,3.45541,144.945,-0.257812,-0.296875,0.882812,0.125,0.0234375,0.015625,215,0
2017/01/13,14:16:59,59,358,-0.302002,0.951782,0.0420532,0.0331421,-5.07665,3.45541,144.945,-0.21875,-0.351562,0.875,0.125,0.03125,0.015625,233,0
2017/01/13,14:16:59,59,390,-0.288452,0.953491,0.046936,-0.0733643,6.47829,7.62485,145.904,-0.148438,-0.382812,0.867188,0.109375,0.046875,0.015625,253,0
2017/01/13,14:16:59,59,391,-0.288452,0.953491,0.046936,-0.0733643,6.47829,7.62485,145.904,-0.0078125,-0.460938,0.789062,0.101562,0.0546875,0,273,0
2017/01/13,14:16:59,59,406,-0.284058,0.943481,0.0665283,-0.157043,14.9834,12.8459,144.792,0.117188,-0.515625,0.703125,0.078125,0.046875,-0.0234375,291,0
2017/01/13,14:16:59,59,457,-0.284058,0.943481,0.0665283,-0.157043,14.9834,12.8459,144.792,0.148438,-0.59375,0.570312,0.0625,0.03125,-0.03125,307,0
2017/01/13,14:16:59,59,474,-0.306519,0.92688,0.0838013,-0.199768,18.5994,17.0451,140.591,0.179688,-0.71875,0.390625,0.0390625,0.0234375,-0.03125,319,0
2017/01/13,14:16:59,59,491,-0.306519,0.92688,0.0838013,-0.199768,18.5994,17.0451,140.591,0.179688,-0.679688,0.351562,0.0078125,0.0078125,-0.0234375,324,0
2017/01/13,14:16:59,59,524,-0.332092,0.917847,0.0973511,-0.194275,16.9759,18.7706,137.392,0.210938,-0.585938,0.351562,-0.015625,0,-0.015625,320,0
2017/01/13,14:16:59,59,557,-0.332092,0.917847,0.0973511,-0.194275,16.9759,18.7706,137.392,0.1875,-0.46875,0.375,-0.03125,-0.015625,0,313,0
2017/01/13,14:16:59,59,558,-0.338928,0.923584,0.098999,-0.149353,12.0505,16.8887,137.901,0.140625,-0.1875,0.4375,-0.046875,-0.0234375,0.015625,306,0
2017/01/13,14:16:59,59,599,-0.338928,0.923584,0.098999,-0.149353,12.0505,16.8887,137.901,0.257812,0.429688,0.460938,-0.0703125,-0.140625,0.0234375,300,0
2017/01/13,14:16:59,59,625,-0.321045,0.942444,0.0426025,-0.0827637,7.39133,7.73373,141.877,0.375,0.328125,0.617188,-0.0859375,-0.179688,-0.0078125,295,0.0874704
2017/01/13,14:16:59,59,637,-0.321045,0.942444,0.0426025,-0.0827637,7.39133,7.73373,141.877,0.140625,-0.03125,0.992188,-0.117188,-0.0546875,0,293,0
2017/01/13,14:16:59,59,674,-0.327515,0.944153,-0.00799561,0.0351562,-3.50573,-2.18913,141.671,0.0078125,0,0.5,-0.015625,-0.015625,-0.0078125,293,0
2017/01/13,14:16:59,59,691,-0.327515,0.944153,-0.00799561,0.0351562,-3.50573,-2.18913,141.671,0.0234375,0,0.5,-0.0078125,-0.0078125,0,293,0
2017/01/13,14:16:59,59,707,-0.328552,0.943237,-0.0153809,0.0454102,-4.3333,-3.38397,141.463,0.015625,0,0.492188,-0.0078125,-0.0078125,0,294,0
2017/01/13,14:16:59,59,774,-0.328552,0.943237,-0.0153809,0.0454102,-4.3333,-3.38397,141.463,0.015625,0,0.492188,-0.0078125,-0.0078125,0,295,0
2017/01/13,14:16:59,59,807,-0.328247,0.943359,-0.0154419,0.0450439,-4.29247,-3.3752,141.502,0.015625,0,0.492188,-0.0078125,-0.0078125,0,296,0
2017/01/13,14:16:59,59,808,-0.328247,0.943359,-0.0154419,0.0450439,-4.29247,-3.3752,141.502,0.015625,0,0.484375,-0.0078125,0,0,297,0
2017/01/13,14:16:59,59,823,-0.328186,0.94342,-0.0153809,0.0441895,-4.20257,-3.33569,141.515,0.015625,0,0.484375,-0.0078125,0,0,298,0
2017/01/13,14:16:59,59,857,-0.328186,0.94342,-0.0153809,0.0441895,-4.20257,-3.33569,141.515,0.015625,0,0.492188,-0.0078125,0,0,298,0
2017/01/13,14:16:59,59,858,-0.328125,0.943481,-0.0150757,0.043457,-4.1351,-3.27441,141.528,0.015625,0,0.492188,-0.0078125,-0.0078125,0,298,0
2017/01/13,14:16:59,59,890,-0.328125,0.943481,-0.0150757,0.043457,-4.1351,-3.27441,141.528,0.015625,0,0.492188,-0.0078125,0,0,298,0
2017/01/13,14:16:59,59,924,-0.328186,0.943481,-0.0149536,0.0427246,-4.0602,-3.23358,141.525,0.015625,0,0.492188,-0.0078125,0,0,298,0
2017/01/13,14:16:59,59,941,-0.328186,0.943481,-0.0149536,0.0427246,-4.0602,-3.23358,141.525,0.015625,0,0.492188,-0.0078125,0,0,297,0
2017/01/13,14:16:59,59,991,-0.328308,0.943481,-0.0147705,0.0421143,-4.00075,-3.19093,141.515,0.015625,0,0.492188,-0.0078125,0,0,297,0
2017/01/13,14:17:00,60,7,-0.328308,0.943481,-0.0147705,0.0421143,-4.00075,-3.19093,141.515,0.015625,0,0.492188,-0.0078125,0,0,297,0
2017/01/13,14:17:00,60,8,-0.328491,0.943481,-0.0145874,0.041626,-3.95443,-3.15308,141.498,0.015625,0,0.492188,-0.0078125,0,0,297,0
2017/01/13,14:17:00,60,40,-0.328491,0.943481,-0.0145874,0.041626,-3.95443,-3.15308,141.498,0.015625,0,0.492188,-0.0078125,0,0,297,0
2017/01/13,14:17:00,60,145,-0.328735,0.94342,-0.0142822,0.0411377,-3.91234,-3.10242,141.472,0.015625,0,0.492188,-0.0078125,0,0,297,0
2017/01/13,14:17:00,60,146,-0.328735,0.94342,-0.0142822,0.0411377,-3.91234,-3.10242,141.472,0.015625,0,0.492188,-0.0078125,0,0,297,0
2017/01/13,14:17:00,60,154,-0.329041,0.943298,-0.0137329,0.0407104,-3.88573,-3.02803,141.438,0.015625,0,0.492188,-0.0078125,0,0,298,0
2017/01/13,14:17:00,60,155,-0.329041,0.943298,-0.0137329,0.0407104,-3.88573,-3.02803,141.438,0.015625,0,0.546875,-0.0078125,0,0,298,0
2017/01/13,14:17:00,60,156,-0.329346,0.943237,-0.0126953,0.0401611,-3.8647,-2.89589,141.407,0.015625,0,0.492188,-0.0078125,0,0,298,0
2017/01/13,14:17:00,60,258,-0.329346,0.943237,-0.0126953,0.0401611,-3.8647,-2.89589,141.407,0.0078125,0,0.492188,-0.0078125,0,0,298,0
2017/01/13,14:17:00,60,274,-0.329651,0.943176,-0.0114746,0.0397339,-3.86391,-2.74854,141.377,0.015625,0,0.5,-0.0078125,0,0,298,0
2017/01/13,14:17:00,60,275,-0.329651,0.943176,-0.0114746,0.0397339,-3.86391,-2.74854,141.377,0.0078125,0,0.5,-0.0078125,0,0,298,0
2017/01/13,14:17:00,60,276,-0.3302,0.942993,-0.00787354,0.0396729,-3.99232,-2.35857,141.321,0,-0.0078125,0.5,-0.015625,0.0078125,0,298,0
2017/01/13,14:17:00,60,307,-0.330322,0.94281,0.00341797,0.0447998,-4.97571,-1.3316,141.325,-0.0078125,-0.0078125,0.507812,-0.0234375,0.0078125,0,298,0
2017/01/13,14:17:00,60,308,-0.330322,0.94281,0.00341797,0.0447998,-4.97571,-1.3316,141.325,0,-0.015625,0.515625,-0.03125,0.0078125,0,298,0
2017/01/13,14:17:00,60,341,-0.330078,0.94165,0.020752,0.062439,-7.54419,-0.12352,141.358,-0.0078125,-0.03125,0.515625,-0.0390625,0.0078125,0,298,0
2017/01/13,14:17:00,60,373,-0.330078,0.94165,0.020752,0.062439,-7.54419,-0.12352,141.358,-0.015625,-0.046875,0.523438,-0.0390625,0.0078125,0,298,0
2017/01/13,14:17:00,60,390,-0.3302,0.939026,0.0375366,0.0880127,-10.9575,0.722076,141.322,-0.015625,-0.0625,0.515625,-0.046875,0,-0.0078125,298,0
2017/01/13,14:17:00,60,425,-0.3302,0.939026,0.0375366,0.0880127,-10.9575,0.722076,141.322,-0.0234375,-0.078125,0.609375,-0.046875,0,0,299,0
2017/01/13,14:17:00,60,491,-0.329224,0.934204,0.0536499,0.126282,-15.7399,1.01744,141.315,-0.046875,-0.09375,0.65625,-0.0625,-0.0078125,-0.0078125,299,0
2017/01/13,14:17:00,60,492,-0.329224,0.934204,0.0536499,0.126282,-15.7399,1.01744,141.315,0,-0.140625,0.703125,-0.0859375,-0.0078125,-0.0078125,300,0
2017/01/13,14:17:00,60,493,-0.32666,0.921204,0.078064,0.196289,-24.3711,0.980484,141.163,0.0078125,-0.164062,0.828125,-0.117188,0,-0.0078125,301,0
2017/01/13,14:17:00,60,524,-0.32666,0.921204,0.078064,0.196289,-24.3711,0.980484,141.163,-0.046875,-0.195312,0.960938,-0.148438,0,0,302,0
2017/01/13,14:17:00,60,541,-0.316345,0.892029,0.117615,0.300598,-37.64,1.42168,141.432,-0.0546875,-0.203125,0.976562,-0.164062,0,-0.0078125,303,0
2017/01/13,14:17:00,60,590,-0.316345,0.892029,0.117615,0.300598,-37.64,1.42168,141.432,-0.15625,-0.0546875,0.992188,-0.171875,-0.0078125,-0.0078125,305,0
2017/01/13,14:17:00,60,592,-0.304199,0.844238,0.160583,0.41095,-52.3332,1.981,141.343,-0.1875,0.28125,0.625,-0.195312,0.0078125,-0.015625,306,0
2017/01/13,14:17:00,60,624,-0.304199,0.844238,0.160583,0.41095,-52.3332,1.981,141.343,-0.171875,0.71875,0.257812,-0.148438,0.015625,-0.03125,308,0
2017/01/13,14:17:00,60,640,-0.304199,0.844238,0.160583,0.41095,-52.3332,1.981,141.343,-0.0078125,0.648438,0.46875,-0.046875,0.0234375,-0.03125,309,0.0805395
2017/01/13,14:17:00,60,674,-0.323059,0.813599,0.184937,0.446594,-57.7994,1.33093,137.421,0.109375,0.046875,0.257812,0.0625,-0.03125,-0.015625,311,0
2017/01/13,14:17:00,60,707,-0.331055,0.841248,0.136414,0.404968,-50.5048,-3.48193,135.395,-0.0859375,0.0546875,0.210938,0.0546875,-0.0546875,-0.0078125,312,0
2017/01/13,14:17:00,60,724,-0.331055,0.841248,0.136414,0.404968,-50.5048,-3.48193,135.395,-0.171875,0.0703125,0.265625,0.0625,-0.03125,0,314,0
2017/01/13,14:17:00,60,740,-0.325745,0.872437,0.102234,0.34967,-42.589,-3.8492,137.551,-0.125,0.0546875,0.34375,0.078125,-0.015625,0.0078125,315,0
2017/01/13,14:17:00,60,775,-0.325745,0.872437,0.102234,0.34967,-42.589,-3.8492,137.551,-0.117188,0,0.390625,0.09375,-0.015625,0.015625,316,0
2017/01/13,14:17:00,60,790,-0.315247,0.908325,0.0737915,0.264648,-31.8231,-2.21297,141.089,-0.195312,-0.046875,0.453125,0.101562,-0.015625,0.0234375,316,0
2017/01/13,14:17:00,60,823,-0.315247,0.908325,0.0737915,0.264648,-31.8231,-2.21297,141.089,-0.195312,-0.101562,0.523438,0.101562,0,0.0234375,316,0
2017/01/13,14:17:00,60,857,-0.300659,0.937073,0.055603,0.168213,-20.4072,0.187012,144.456,-0.171875,-0.148438,0.601562,0.101562,0,0.0234375,315,0
2017/01/13,14:17:00,60,890,-0.300659,0.937073,0.055603,0.168213,-20.4072,0.187012,144.456,-0.234375,-0.140625,0.726562,0.101562,0.0078125,0.0234375,314,0
2017/01/13,14:17:00,60,891,-0.286926,0.954346,0.0459595,0.0684814,-9.03768,2.81078,146.755,-0.226562,-0.25,0.820312,0.117188,0.015625,0.015625,312,0
2017/01/13,14:17:00,60,923,-0.286926,0.954346,0.0459595,0.0684814,-9.03768,2.81078,146.755,-0.195312,-0.367188,0.851562,0.117188,0.0234375,0.0234375,310,0
2017/01/13,14:17:00,60,936,-0.273743,0.960083,0.0481567,-0.0316162,1.96811,6.30618,148.063,-0.148438,-0.351562,0.882812,0.117188,0.03125,0.015625,307,0
2017/01/13,14:17:00,60,990,-0.273743,0.960083,0.0481567,-0.0316162,1.96811,6.30618,148.063,-0.078125,-0.421875,0.859375,0.109375,0.03125,0.015625,302,0
2017/01/13,14:17:01,61,4,-0.263977,0.956116,0.0528564,-0.115356,11.1094,9.50186,148.205,-0.0390625,-0.484375,0.789062,0.101562,0.0234375,0.0078125,296,0
2017/01/13,14:17:01,61,24,-0.263977,0.956116,0.0528564,-0.115356,11.1094,9.50186,148.205,0.015625,-0.546875,0.65625,0.09375,0.0234375,0.0078125,290,0
2017/01/13,14:17:01,61,40,-0.260437,0.948792,0.0532227,-0.170654,17.224,11.4669,147.559,0,-0.585938,0.515625,0.0703125,0.015625,0,284,0
2017/01/13,14:17:01,61,107,-0.260437,0.948792,0.0532227,-0.170654,17.224,11.4669,147.559,-0.015625,-0.625,0.4375,0.046875,0.015625,-0.015625,277,0
2017/01/13,14:17:01,61,108,-0.272156,0.942444,0.0635376,-0.183655,18.1547,13.3694,145.64,0.0234375,-0.703125,0.359375,0.0234375,0.015625,-0.0234375,270,0
2017/01/13,14:17:01,61,123,-0.272156,0.942444,0.0635376,-0.183655,18.1547,13.3694,145.64,0.101562,-0.710938,0.320312,0,0.0078125,-0.03125,264,0
2017/01/13,14:17:01,61,157,-0.294678,0.939575,0.078125,-0.155701,14.273,14.2513,143.381,0.203125,-0.65625,0.3125,-0.0234375,0,-0.0234375,258,0
2017/01/13,14:17:01,61,174,-0.294678,0.939575,0.078125,-0.155701,14.273,14.2513,143.381,0.171875,-0.476562,0.414062,-0.046875,-0.0234375,0,254,0
2017/01/13,14:17:01,61,191,-0.287964,0.950867,0.0560303,-0.0986328,8.93442,9.51913,145.557,0.210938,0.695312,0.0546875,-0.0703125,-0.101562,0.0234375,251,0.102316
2017/01/13,14:17:01,61,223,-0.287964,0.950867,0.0560303,-0.0986328,8.93442,9.51913,145.557,-0.132812,0.164062,0.570312,-0.09375,-0.125,0,249,0
2017/01/13,14:17:01,61,275,-0.287292,0.957642,0.010437,0.013855,-1.86434,0.689651,146.613,0.0703125,-0.0234375,0.875,-0.109375,-0.0234375,0,248,0
2017/01/13,14:17:01,61,276,-0.287292,0.957642,0.010437,0.013855,-1.86434,0.689651,146.613,0.0078125,0,0.601562,-0.0234375,-0.0234375,0,249,0
2017/01/13,14:17:01,61,324,-0.28717,0.95697,0.00384521,0.0415039,-4.6831,-0.947327,146.554,0,0,0.492188,-0.0078125,-0.0078125,0,249,0
2017/01/13,14:17:01,61,394,-0.28717,0.95697,0.00384521,0.0415039,-4.6831,-0.947327,146.554,0,0,0.492188,-0.0078125,0,0,251,0
2017/01/13,14:17:01,61,395,-0.286743,0.957092,0.0045166,0.0418091,-4.73921,-0.881454,146.607,0,0,0.484375,-0.0078125,0,0,252,0
2017/01/13,14:17:01,61,407,-0.286743,0.957092,0.0045166,0.0418091,-4.73921,-0.881454,146.607,0,0,0.492188,-0.0078125,0,0,253,0
2017/01/13,14:17:01,61,408,-0.286682,0.957153,0.00469971,0.0408325,-4.63804,-0.828659,146.619,0,0.0078125,0.492188,-0.0078125,0,0,253,0
2017/01/13,14:17:01,61,423,-0.286682,0.957153,0.00469971,0.0408325,-4.63804,-0.828659,146.619,0,0,0.492188,-0.0078125,0,0,254,0
2017/01/13,14:17:01,61,457,-0.286621,0.957153,0.00500488,0.0402222,-4.5809,-0.774673,146.628,0,0,0.484375,-0.0078125,0,0,255,0
2017/01/13,14:17:01,61,491,-0.286621,0.957153,0.00500488,0.0402222,-4.5809,-0.774673,146.628,0,0,0.492188,-0.0078125,0,0,256,0
2017/01/13,14:17:01,61,492,-0.286743,0.957153,0.00506592,0.0394287,-4.49568,-0.742279,146.617,0,0,0.492188,-0.0078125,0,0,256,0
2017/01/13,14:17:01,61,540,-0.286743,0.957153,0.00506592,0.0394287,-4.49568,-0.742279,146.617,0,0,0.492188,-0.0078125,0,0,256,0
2017/01/13,14:17:01,61,557,-0.286743,0.957214,0.00524902,0.0385742,-4.40798,-0.693787,146.621,0,0,0.492188,-0.0078125,0,0,256,0
2017/01/13,14:17:01,61,573,-0.286743,0.957214,0.00524902,0.0385742,-4.40798,-0.693787,146.621,0,0,0.492188,-0.0078125,0,0,256,0
2017/01/13,14:17:01,61,607,-0.286804,0.957214,0.00561523,0.0379028,-4.34623,-0.631592,146.617,-0.0078125,0,0.492188,-0.0078125,0,0,256,0
2017/01/13,14:17:01,61,715,-0.286804,0.957214,0.00561523,0.0379028,-4.34623,-0.631592,146.617,0,0,0.492188,-0.0078125,0,0,256,0
2017/01/13,14:17:01,61,716,-0.286804,0.957214,0.00610352,0.0373535,-4.30189,-0.559769,146.62,-0.0078125,0,0.492188,-0.0078125,0,0,256,0
2017/01/13,14:17:01,61,717,-0.286804,0.957214,0.00610352,0.0373535,-4.30189,-0.559769,146.62,-0.0078125,0,0.492188,-0.0078125,0,0,256,0
2017/01/13,14:17:01,61,741,-0.286865,0.957214,0.00671387,0.0368042,-4.26163,-0.474747,146.617,-0.0078125,0,0.492188,-0.0078125,0,0,256,0
2017/01/13,14:17:01,61,742,-0.286865,0.957214,0.00671387,0.0368042,-4.26163,-0.474747,146.617,-0.0078125,0,0.492188,-0.0078125,0,0,256,0
2017/01/13,14:17:01,61,758,-0.286926,0.957214,0.00726318,0.0362549,-4.21937,-0.396454,146.613,-0.0078125,0,0.492188,-0.0078125,0,0,256,0
2017/01/13,14:17:01,61,791,-0.286926,0.957214,0.00726318,0.0362549,-4.21937,-0.396454,146.613,-0.0078125,0,0.484375,-0.0078125,0,0,256,0
2017/01/13,14:17:01,61,792,-0.286987,0.957214,0.00769043,0.0357056,-4.1731,-0.331573,146.609,-0.0078125,0,0.492188,-0.0078125,0,0,256,0
2017/01/13,14:17:01,61,823,-0.286987,0.957214,0.00769043,0.0357056,-4.1731,-0.331573,146.609,-0.0078125,0,0.492188,-0.0078125,0,0,256,0
2017/01/13,14:17:01,61,857,-0.28717,0.957153,0.00830078,0.0352173,-4.13945,-0.24913,146.59,-0.0078125,0,0.492188,-0.0078125,0,0,256,0
2017/01/13,14:17:01,61,874,-0.28717,0.957153,0.00830078,0.0352173,-4.13945,-0.24913,146.59,-0.0078125,0,0.5,-0.0078125,0,0,256,0
2017/01/13,14:17:01,61,906,-0.287659,0.95697,0.0105591,0.0359497,-4.29435,-0.0271759,146.538,-0.0078125,-0.0078125,0.507812,-0.0078125,0,0,256,0
2017/01/13,14:17:01,61,937,-0.287659,0.95697,0.0105591,0.0359497,-4.29435,-0.0271759,146.538,-0.0078125,-0.0078125,0.523438,-0.0234375,0,0,256,0
2017/01/13,14:17:01,61,938,-0.288208,0.956299,0.0178833,0.0456543,-5.60251,0.454117,146.479,-0.0234375,-0.015625,0.507812,-0.03125,0.0078125,0,256,0
2017/01/13,14:17:01,61,987,-0.288208,0.956299,0.0178833,0.0456543,-5.60251,0.454117,146.479,-0.0234375,-0.03125,0.523438,-0.03125,0.0078125,-0.0078125,257,0
2017/01/13,14:17:02,62,4,-0.289368,0.954285,0.0322876,0.0667725,-8.40248,1.33119,146.36,-0.03125,-0.0390625,0.523438,-0.0390625,0,-0.0078125,257,0
2017/01/13,14:17:02,62,24,-0.289368,0.954285,0.0322876,0.0667725,-8.40248,1.33119,146.36,-0.0078125,-0.0625,0.601562,-0.046875,0,-0.0078125,258,0
2017/01/13,14:17:02,62,57,-0.2901,0.950806,0.0447998,0.0988159,-12.3511,1.63429,146.242,-0.0859375,-0.0625,0.65625,-0.0625,-0.0078125,-0.0078125,258,0
2017/01/13,14:17:02,62,90,-0.2901,0.950806,0.0447998,0.0988159,-12.3511,1.63429,146.242,0.0078125,-0.109375,0.6875,-0.0859375,-0.0078125,-0.0078125,259,0
2017/01/13,14:17:02,62,107,-0.290466,0.941345,0.0588379,0.161194,-19.7343,1.04288,145.885,-0.0078125,-0.132812,0.71875,-0.109375,-0.0078125,-0.0078125,260,0
2017/01/13,14:17:02,62,156,-0.290466,0.941345,0.0588379,0.161194,-19.7343,1.04288,145.885,-0.046875,-0.171875,0.929688,-0.132812,-0.0078125,-0.0078125,262,0
2017/01/13,14:17:02,62,157,-0.286804,0.918579,0.0848389,0.258301,-31.5474,0.517654,145.467,-0.09375,-0.210938,0.960938,-0.15625,-0.0078125,-0.015625,263,0
2017/01/13,14:17:02,62,174,-0.286804,0.918579,0.0848389,0.258301,-31.5474,0.517654,145.467,-0.15625,-0.15625,0.992188,-0.164062,0,-0.015625,266,0
2017/01/13,14:17:02,62,223,-0.284119,0.877014,0.121033,0.368042,-45.5884,0.258698,144.208,-0.195312,0.0546875,0.789062,-0.171875,0.0078125,-0.0234375,268,0
2017/01/13,14:17:02,62,240,-0.284119,0.877014,0.121033,0.368042,-45.5884,0.258698,144.208,-0.171875,0.492188,0.523438,-0.203125,0.0234375,-0.046875,270,0
2017/01/13,14:17:02,62,257,-0.297607,0.806885,0.166748,0.482178,-61.3273,-2.1394,138.24,-0.132812,0.898438,0.257812,-0.179688,0.0234375,-0.0546875,273,0
2017/01/13,14:17:02,62,276,-0.297607,0.806885,0.166748,0.482178,-61.3273,-2.1394,138.24,0.0546875,0.382812,0.359375,0.0703125,0.0234375,-0.0390625,276,0.0885184
2017/01/13,14:17:02,62,323,-0.346924,0.821533,0.14679,0.427979,-53.6148,-5.39449,131.485,0.0703125,0.0234375,0.242188,0.0859375,-0.015625,-0.0234375,278,0
2017/01/13,14:17:02,62,324,-0.346924,0.821533,0.14679,0.427979,-53.6148,-5.39449,131.485,-0.0859375,0.0546875,0.210938,0.0703125,-0.0390625,-0.0078125,280,0
2017/01/13,14:17:02,62,357,-0.351746,0.852844,0.101379,0.372314,-44.9405,-7.22354,132.183,-0.179688,0.09375,0.34375,0.0703125,-0.015625,0.0078125,282,0
2017/01/13,14:17:02,62,375,-0.351746,0.852844,0.101379,0.372314,-44.9405,-7.22354,132.183,-0.140625,0.0546875,0.46875,0.09375,0.0078125,0.015625,283,0
2017/01/13,14:17:02,62,474,-0.34613,0.891174,0.0830688,0.281189,-33.9647,-3.22099,136.564,-0.078125,-0.0703125,0.476562,0.117188,0.0078125,0.0234375,282,0
2017/01/13,14:17:02,62,476,-0.34613,0.891174,0.0830688,0.281189,-33.9647,-3.22099,136.564,-0.15625,-0.164062,0.53125,0.109375,0,0.0234375,282,0
2017/01/13,14:17:02,62,492,-0.332825,0.923096,0.0612183,0.182678,-22.2104,-0.530945,140.242,-0.203125,-0.195312,0.617188,0.101562,0,0.0078125,280,0
2017/01/13,14:17:02,62,493,-0.332825,0.923096,0.0612183,0.182678,-22.2104,-0.530945,140.242,-0.21875,-0.15625,0.726562,0.101562,0.015625,0,278,0
2017/01/13,14:17:02,62,508,-0.335815,0.936401,0.0512695,0.0880127,-11.494,2.15834,140.759,-0.226562,-0.25,0.804688,0.109375,0.0234375,-0.0078125,277,0
2017/01/13,14:17:02,62,541,-0.335815,0.936401,0.0512695,0.0880127,-11.494,2.15834,140.759,-0.226562,-0.28125,0.859375,0.109375,0.03125,-0.0078125,277,0
2017/01/13,14:17:02,62,542,-0.34375,0.937378,0.0540771,-0.0136719,-0.661587,6.36105,139.759,-0.15625,-0.320312,0.882812,0.117188,0.046875,0,281,0
2017/01/13,14:17:02,62,574,-0.34375,0.937378,0.0540771,-0.0136719,-0.661587,6.36105,139.759,-0.0546875,-0.414062,0.835938,0.117188,0.046875,0.015625,286,0
2017/01/13,14:17:02,62,624,-0.335205,0.933411,0.0655518,-0.110107,9.30003,11.4666,139.556,0.046875,-0.5,0.78125,0.101562,0.0546875,0.0234375,292,0
2017/01/13,14:17:02,62,625,-0.335205,0.933411,0.0655518,-0.110107,9.30003,11.4666,139.556,0.132812,-0.640625,0.671875,0.0859375,0.0390625,0.03125,299,0
2017/01/13,14:17:02,62,675,-0.311584,0.932251,0.0727539,-0.168884,15.6373,14.4866,141.038,0.109375,-0.75,0.53125,0.0625,0.0234375,0.0234375,305,0
2017/01/13,14:17:02,62,676,-0.311584,0.932251,0.0727539,-0.168884,15.6373,14.4866,141.038,0.164062,-0.820312,0.390625,0.0390625,0.0234375,0.0078125,310,0
2017/01/13,14:17:02,62,690,-0.307312,0.931335,0.0825195,-0.177002,16.1992,15.8643,141.205,0.21875,-0.789062,0.34375,0.0078125,0.015625,-0.0078125,313,0
2017/01/13,14:17:02,62,725,-0.307312,0.931335,0.0825195,-0.177002,16.1992,15.8643,141.205,0.171875,-0.640625,0.367188,-0.015625,0,-0.015625,314,0
2017/01/13,14:17:02,62,725,-0.307312,0.931335,0.0825195,-0.177002,16.1992,15.8643,141.205,0.171875,-0.640625,0.367188,-0.015625,0,-0.015625,314,0
2017/01/13,14:17:02,62,757,-0.319763,0.932922,0.0904541,-0.138489,11.5692,15.2297,140.609,0.117188,-0.492188,0.382812,-0.03125,-0.0078125,-0.015625,312,0
2017/01/13,14:17:02,62,790,-0.319763,0.932922,0.0904541,-0.138489,11.5692,15.2297,140.609,-0.210938,0.265625,-0.117188,-0.0625,-0.0546875,0.0078125,309,0.0935996
2017/01/13,14:17:02,62,807,-0.316406,0.944153,0.0498657,-0.0773926,6.5797,8.28423,142.469,-0.132812,0.4375,0.09375,-0.078125,-0.148438,0.015625,305,0
2017/01/13,14:17:02,62,837,-0.316406,0.944153,0.0498657,-0.0773926,6.5797,8.28423,142.469,0.101562,-0.0703125,0.992188,-0.125,-0.046875,0.0078125,301,0
2017/01/13,14:17:02,62,838,-0.314575,0.94873,-0.00537109,0.0296631,-3.03267,-1.65584,143.268,0.0078125,-0.0078125,0.59375,-0.0546875,-0.03125,0,299,0
2017/01/13,14:17:02,62,873,-0.314575,0.94873,-0.00537109,0.0296631,-3.03267,-1.65584,143.268,0.015625,0,0.515625,-0.015625,-0.015625,-0.0078125,298,0
2017/01/13,14:17:02,62,907,-0.31488,0.947937,-0.0131226,0.0449829,-4.41717,-3.05931,143.132,0.015625,0.0078125,0.492188,-0.0078125,0,0,298,0
2017/01/13,14:17:02,62,941,-0.31488,0.947937,-0.0131226,0.0449829,-4.41717,-3.05931,143.132,0.0078125,0,0.492188,-0.0078125,0,0,298,0
2017/01/13,14:17:02,62,958,-0.314697,0.947998,-0.012207,0.0452881,-4.48413,-2.96986,143.156,0.0078125,0,0.484375,-0.0078125,0,0,299,0
2017/01/13,14:17:02,62,990,-0.314697,0.947998,-0.012207,0.0452881,-4.48413,-2.96986,143.156,0.0078125,0,0.492188,-0.0078125,0,0,299,0
2017/01/13,14:17:02,62,991,-0.314758,0.948059,-0.0118408,0.0445557,-4.4178,-2.90326,143.155,0.0078125,0.0078125,0.492188,-0.0078125,0,0,299,0
2017/01/13,14:17:03,63,25,-0.314758,0.948059,-0.0118408,0.0445557,-4.4178,-2.90326,143.155,0.0078125,0,0.492188,-0.0078125,0,0,300,0
2017/01/13,14:17:03,63,57,-0.314758,0.948059,-0.0113525,0.0443726,-4.41551,-2.84343,143.158,0.0078125,0,0.492188,-0.0078125,0,0,299,0
2017/01/13,14:17:03,63,74,-0.314758,0.948059,-0.0113525,0.0443726,-4.41551,-2.84343,143.158,0.0078125,0,0.492188,-0.0078125,0,0,300,0
2017/01/13,14:17:03,63,123,-0.314758,0.948059,-0.0111694,0.0437012,-4.34899,-2.79907,143.161,0.0078125,0,0.492188,-0.0078125,0,0,300,0
2017/01/13,14:17:03,63,140,-0.314758,0.948059,-0.0111694,0.0437012,-4.34899,-2.79907,143.161,0.0078125,0,0.492188,-0.0078125,0,0,300,0
2017/01/13,14:17:03,63,141,-0.314758,0.94812,-0.0108643,0.0429077,-4.27388,-2.73672,143.167,0.0078125,0,0.492188,-0.0078125,0,0,300,0
2017/01/13,14:17:03,63,174,-0.314758,0.94812,-0.0108643,0.0429077,-4.27388,-2.73672,143.167,0.0078125,0,0.492188,-0.0078125,0,0,300,0
2017/01/13,14:17:03,63,209,-0.314758,0.948181,-0.0106812,0.0419922,-4.18106,-2.68327,143.174,0.0078125,0,0.492188,-0.0078125,0,0,300,0
2017/01/13,14:17:03,63,240,-0.314758,0.948181,-0.0106812,0.0419922,-4.18106,-2.68327,143.174,0.0078125,0,0.484375,-0.0078125,0,0,300,0
2017/01/13,14:17:03,63,259,-0.314819,0.948181,-0.010498,0.0411987,-4.10117,-2.63469,143.171,0.0078125,0,0.492188,-0.0078125,0,0,300,0
2017/01/13,14:17:03,63,273,-0.314819,0.948181,-0.010498,0.0411987,-4.10117,-2.63469,143.171,0.0078125,0,0.492188,-0.0078125,0,0,300,0
2017/01/13,14:17:03,63,307,-0.31488,0.948181,-0.0102539,0.0404053,-4.02349,-2.57944,143.168,0.0078125,0,0.492188,-0.0078125,0,0,300,0
2017/01/13,14:17:03,63,342,-0.31488,0.948181,-0.0102539,0.0404053,-4.02349,-2.57944,143.168,0.0078125,0,0.492188,-0.0078125,0,0,300,0
2017/01/13,14:17:03,63,374,-0.315002,0.948181,-0.0100708,0.0397339,-3.95685,-2.53548,143.158,0.0078125,0,0.492188,-0.0078125,0,0,300,0
2017/01/13,14:17:03,63,375,-0.315002,0.948181,-0.0100708,0.0397339,-3.95685,-2.53548,143.158,0.0078125,0,0.492188,-0.0078125,0,0,300,0
2017/01/13,14:17:03,63,407,-0.315186,0.948181,-0.00982666,0.0390015,-3.88571,-2.4828,143.141,0.0078125,0,0.492188,-0.0078125,0,0,300,0
2017/01/13,14:17:03,63,442,-0.315186,0.948181,-0.00982666,0.0390015,-3.88571,-2.4828,143.141,0.0078125,0,0.492188,-0.0078125,0,0,300,0
2017/01/13,14:17:03,63,443,-0.315369,0.94812,-0.00952148,0.0383301,-3.82317,-2.42592,143.122,0.0078125,0,0.492188,-0.0078125,0,0,300,0
2017/01/13,14:17:03,63,491,-0.315369,0.94812,-0.00952148,0.0383301,-3.82317,-2.42592,143.122,0.0078125,0,0.492188,-0.0078125,0,0,300,0
2017/01/13,14:17:03,63,571,-0.315491,0.94812,-0.0090332,0.0377197,-3.77427,-2.35092,143.112,0.0078125,0,0.492188,-0.0078125,0,0,300,0
2017/01/13,14:17:03,63,572,-0.315491,0.94812,-0.0090332,0.0377197,-3.77427,-2.35092,143.112,0.0078125,0,0.5,-0.0078125,0,0,300,0
2017/01/13,14:17:03,63,573,-0.31604,0.947937,-0.00640869,0.0383301,-3.93462,-2.08974,143.052,-0.0078125,0,0.507812,-0.015625,0,0,300,0
2017/01/13,14:17:03,63,591,-0.31604,0.947937,-0.00640869,0.0383301,-3.93462,-2.08974,143.052,0,-0.015625,0.53125,-0.0234375,0,-0.0078125,300,0
2017/01/13,14:17:03,63,592,-0.317017,0.947205,0.00311279,0.0474854,-5.27467,-1.39325,142.926,0.015625,-0.0234375,0.5625,-0.03125,0.0078125,-0.0078125,300,0
2017/01/13,14:17:03,63,641,-0.317017,0.947205,0.00311279,0.0474854,-5.27467,-1.39325,142.926,-0.046875,-0.0234375,0.640625,-0.0546875,0.0078125,0,301,0
2017/01/13,14:17:03,63,658,-0.317932,0.944641,0.0233154,0.0773315,-9.26068,-0.297409,142.773,0.0078125,-0.0546875,0.671875,-0.0703125,0,-0.0078125,301,0
2017/01/13,14:17:03,63,691,-0.317932,0.944641,0.0233154,0.0773315,-9.26068,-0.297409,142.773,0,-0.078125,0.65625,-0.0859375,0,-0.0078125,302,0
2017/01/13,14:17:03,63,707,-0.317871,0.936951,0.0463257,0.137329,-16.666,-0.0296783,142.515,-0.03125,-0.101562,0.742188,-0.109375,0,0,302,0
2017/01/13,14:17:03,63,741,-0.317871,0.936951,0.0463257,0.137329,-16.666,-0.0296783,142.515,-0.0546875,-0.148438,0.859375,-0.132812,-0.0078125,-0.0078125,303,0
2017/01/13,14:17:03,63,774,-0.313965,0.918518,0.0774536,0.227356,-27.7942,-0.0309906,142.25,-0.0703125,-0.210938,0.960938,-0.15625,-0.0078125,-0.0078125,305,0
2017/01/13,14:17:03,63,775,-0.313965,0.918518,0.0774536,0.227356,-27.7942,-0.0309906,142.25,-0.101562,-0.171875,0.992188,-0.164062,0,-0.015625,306,0
2017/01/13,14:17:03,63,807,-0.310181,0.882385,0.11554,0.334351,-41.4318,-0.268814,141.163,-0.15625,0.015625,0.789062,-0.164062,0.0078125,-0.0234375,308,0
2017/01/13,14:17:03,63,857,-0.310181,0.882385,0.11554,0.334351,-41.4318,-0.268814,141.163,-0.1875,0.148438,0.640625,-0.195312,0.0234375,-0.03125,310,0
2017/01/13,14:17:03,63,858,-0.316772,0.820496,0.170471,0.444214,-56.8197,-0.176712,137.684,-0.179688,0.78125,0.296875,-0.132812,0.0390625,-0.046875,313,0.0636551
2017/01/13,14:17:03,63,909,-0.316772,0.820496,0.170471,0.444214,-56.8197,-0.176712,137.684,-0.0625,0.601562,0.78125,-0.0390625,0.046875,-0.046875,315,0
2017/01/13,14:17:03,63,910,-0.358032,0.810486,0.178406,0.427856,-55.2145,-1.72606,131.43,0.0546875,0.117188,0.34375,0.078125,-0.03125,-0.0078125,318,0
2017/01/13,14:17:03,63,924,-0.358032,0.810486,0.178406,0.427856,-55.2145,-1.72606,131.43,-0.15625,0.117188,0.257812,0.0703125,-0.0546875,0,321,0
2017/01/13,14:17:03,63,955,-0.357422,0.848267,0.120422,0.371704,-45.782,-5.05211,132.169,-0.242188,0.125,0.351562,0.078125,-0.0234375,0,323,0
2017/01/13,14:17:04,64,9,-0.357422,0.848267,0.120422,0.371704,-45.782,-5.05211,132.169,-0.117188,0.09375,0.4375,0.09375,0.0078125,0,326,0
2017/01/13,14:17:04,64,10,-0.366272,0.880127,0.0960083,0.286194,-35.0369,-2.84618,133.911,-0.078125,0.0234375,0.484375,0.109375,0.0078125,0.0078125,328,0
2017/01/13,14:17:04,64,24,-0.366272,0.880127,0.0960083,0.286194,-35.0369,-2.84618,133.911,-0.15625,-0.0859375,0.554688,0.117188,0,0.0078125,329,0
2017/01/13,14:17:04,64,58,-0.366272,0.909973,0.0671997,0.182312,-22.3972,-0.697327,136.012,-0.15625,-0.171875,0.632812,0.109375,0.015625,0.0078125,329,0
2017/01/13,14:17:04,64,74,-0.366272,0.909973,0.0671997,0.182312,-22.3972,-0.697327,136.012,-0.148438,-0.1875,0.726562,0.101562,0.015625,0,329,0
2017/01/13,14:17:04,64,108,-0.36853,0.924316,0.0534058,0.083252,-11.1434,2.18266,136.738,-0.195312,-0.234375,0.84375,0.109375,0.0234375,0,328,0
2017/01/13,14:17:04,64,140,-0.36853,0.924316,0.0534058,0.083252,-11.1434,2.18266,136.738,-0.1875,-0.335938,0.898438,0.117188,0.03125,0.0078125,326,0
2017/01/13,14:17:04,64,157,-0.36731,0.928711,0.0472412,-0.0186768,-0.000783764,5.82365,136.842,-0.179688,-0.375,0.90625,0.125,0.03125,0.0234375,323,0
2017/01/13,14:17:04,64,191,-0.36731,0.928711,0.0472412,-0.0186768,-0.000783764,5.82365,136.842,-0.117188,-0.460938,0.828125,0.125,0.0390625,0.0390625,319,0
2017/01/13,14:17:04,64,208,-0.342957,0.930786,0.0459595,-0.117859,10.829,9.75394,138.62,-0.0546875,-0.570312,0.78125,0.109375,0.0390625,0.046875,313,0
2017/01/13,14:17:04,64,224,-0.342957,0.930786,0.0459595,-0.117859,10.829,9.75394,138.62,0.015625,-0.726562,0.640625,0.0859375,0.03125,0.046875,307,0
2017/01/13,14:17:04,64,257,-0.308044,0.9328,0.0508423,-0.180054,17.7332,12.4767,141.496,0.046875,-0.789062,0.507812,0.0625,0.03125,0.0234375,299,0
2017/01/13,14:17:04,64,291,-0.308044,0.9328,0.0508423,-0.180054,17.7332,12.4767,141.496,0.171875,-0.757812,0.398438,0.03125,0.0234375,-0.0078125,293,0
2017/01/13,14:17:04,64,324,-0.307556,0.929993,0.0668335,-0.189697,18.1632,14.6937,141.04,0.15625,-0.703125,0.328125,0.0078125,0.0078125,-0.0234375,286,0
2017/01/13,14:17:04,64,325,-0.307556,0.929993,0.0668335,-0.189697,18.1632,14.6937,141.04,0.101562,-0.601562,0.335938,-0.015625,0,-0.03125,280,0
2017/01/13,14:17:04,64,375,-0.33136,0.926819,0.078064,-0.158264,13.9828,14.9056,138.815,0.078125,-0.445312,0.390625,-0.03125,-0.0078125,-0.0234375,276,0
2017/01/13,14:17:04,64,376,-0.33136,0.926819,0.078064,-0.158264,13.9828,14.9056,138.815,0.0078125,0.296875,0.484375,-0.0703125,-0.09375,0.015625,274,0.0743633
2017/01/13,14:17:04,64,408,-0.335754,0.936646,0.0386963,-0.0915527,8.36739,7.78297,139.988,0.195312,0.21875,0.59375,-0.0703125,-0.15625,0.0078125,273,0
2017/01/13,14:17:04,64,440,-0.335754,0.936646,0.0386963,-0.0915527,8.36739,7.78297,139.988,0.109375,-0.0078125,0.960938,-0.125,-0.015625,0.0078125,274,0
2017/01/13,14:17:04,64,475,-0.337524,0.941162,0.0045166,0.0169067,-1.99847,-0.166901,140.539,-0.0234375,0.0078125,0.554688,-0.0546875,-0.03125,-0.0078125,277,0
2017/01/13,14:17:04,64,476,-0.337524,0.941162,0.0045166,0.0169067,-1.99847,-0.166901,140.539,0.0078125,-0.0078125,0.515625,-0.015625,-0.0078125,0,280,0
2017/01/13,14:17:04,64,508,-0.33728,0.940552,-0.000732422,0.0400391,-4.29108,-1.63123,140.483,0,0.0078125,0.492188,-0.0078125,0,0,284,0
2017/01/13,14:17:04,64,524,-0.33728,0.940552,-0.000732422,0.0400391,-4.29108,-1.63123,140.483,0,0.0078125,0.492188,-0.0078125,0,0,287,0
2017/01/13,14:17:04,64,591,-0.337036,0.940613,0.00012207,0.0397949,-4.29809,-1.52837,140.516,0,0,0.484375,-0.0078125,0,0,290,0
2017/01/13,14:17:04,64,592,-0.337036,0.940613,0.00012207,0.0397949,-4.29809,-1.52837,140.516,0,0.0078125,0.492188,-0.0078125,0,0,291,0
2017/01/13,14:17:04,64,608,-0.336975,0.940674,0.000549316,0.0386963,-4.19616,-1.43916,140.529,0,0.0078125,0.492188,-0.0078125,0,0,293,0
2017/01/13,14:17:04,64,625,-0.336975,0.940674,0.000549316,0.0386963,-4.19616,-1.43916,140.529,0,0,0.484375,-0.0078125,0,0,294,0
2017/01/13,14:17:04,64,741,-0.336975,0.940735,0.0010376,0.0379028,-4.12958,-1.35544,140.536,0,0.0078125,0.492188,-0.0078125,0,0,294,0
2017/01/13,14:17:04,64,742,-0.336975,0.940735,0.0010376,0.0379028,-4.12958,-1.35544,140.536,0,0,0.492188,-0.0078125,0,0,294,0
2017/01/13,14:17:04,64,758,-0.336975,0.940796,0.0012207,0.0369873,-4.03798,-1.29996,140.541,0,0,0.492188,-0.0078125,0,0,294,0
2017/01/13,14:17:04,64,759,-0.336975,0.940796,0.0012207,0.0369873,-4.03798,-1.29996,140.541,0,0,0.492188,-0.0078125,0,0,294,0
2017/01/13,14:17:04,64,760,-0.336914,0.940796,0.00134277,0.0361328,-3.95035,-1.25342,140.55,0,0,0.492188,-0.0078125,0,0,294,0
2017/01/13,14:17:04,64,790,-0.336914,0.940796,0.00134277,0.0361328,-3.95035,-1.25342,140.55,0,0,0.492188,-0.0078125,0,0,294,0
2017/01/13,14:17:04,64,807,-0.336914,0.940857,0.00158691,0.0353394,-3.87431,-1.19612,140.555,0,0,0.492188,-0.0078125,0,0,294,0
2017/01/13,14:17:04,64,823,-0.336914,0.940857,0.00158691,0.0353394,-3.87431,-1.19612,140.555,0,0.0078125,0.484375,-0.0078125,0,0,294,0
2017/01/13,14:17:04,64,873,-0.336975,0.940857,0.0020752,0.034668,-3.82067,-1.11754,140.552,0,0,0.492188,-0.0078125,0,0,294,0
2017/01/13,14:17:04,64,908,-0.336975,0.940857,0.0020752,0.034668,-3.82067,-1.11754,140.552,0,0,0.492188,-0.0078125,0,0,294,0
2017/01/13,14:17:04,64,909,-0.337097,0.940857,0.00262451,0.0341187,-3.78261,-1.03729,140.542,0,0,0.484375,-0.0078125,0,0,294,0
2017/01/13,14:17:04,64,940,-0.337097,0.940857,0.00262451,0.0341187,-3.78261,-1.03729,140.542,0,0,0.492188,-0.0078125,0,0,294,0
2017/01/13,14:17:04,64,991,-0.337158,0.940796,0.00317383,0.0335693,-3.74431,-0.956985,140.536,0,0,0.492188,-0.0078125,0,0,294,0
2017/01/13,14:17:04,64,992,-0.337158,0.940796,0.00317383,0.0335693,-3.74431,-0.956985,140.536,0,0,0.492188,-0.0078125,0,0,294,0
2017/01/13,14:17:05,65,24,-0.33728,0.940796,0.00384521,0.0330811,-3.7176,-0.865906,140.526,-0.0078125,0,0.492188,-0.0078125,0,0,294,0
2017/01/13,14:17:05,65,40,-0.33728,0.940796,0.00384521,0.0330811,-3.7176,-0.865906,140.526,-0.0078125,0,0.492188,-0.0078125,0,0,294,0
2017/01/13,14:17:05,65,58,-0.337341,0.940796,0.0045166,0.0325928,-3.69089,-0.774643,140.522,-0.0078125,0,0.492188,-0.0078125,0,0,294,0
2017/01/13,14:17:05,65,91,-0.337341,0.940796,0.0045166,0.0325928,-3.69089,-0.774643,140.522,-0.0078125,0,0.5,-0.0078125,0,0,294,0
2017/01/13,14:17:05,65,141,-0.337463,0.940735,0.00567627,0.0326538,-3.74225,-0.652267,140.511,-0.0078125,0,0.507812,-0.0078125,0,0,294,0
2017/01/13,14:17:05,65,142,-0.337463,0.940735,0.00567627,0.0326538,-3.74225,-0.652267,140.511,-0.0078125,-0.015625,0.53125,-0.015625,0,0,294,0
2017/01/13,14:17:05,65,157,-0.337463,0.940369,0.0114136,0.0401001,-4.76799,-0.32193,140.504,-0.015625,-0.0078125,0.539062,-0.0234375,0,0,294,0
2017/01/13,14:17:05,65,190,-0.337463,0.940369,0.0114136,0.0401001,-4.76799,-0.32193,140.504,-0.015625,-0.0234375,0.53125,-0.03125,0.0078125,-0.0078125,294,0
2017/01/13,14:17:05,65,207,-0.338257,0.938782,0.0258179,0.0596924,-7.44315,0.467606,140.401,-0.015625,-0.0390625,0.554688,-0.0390625,0,-0.0078125,295,0
2017/01/13,14:17:05,65,241,-0.338257,0.938782,0.0258179,0.0596924,-7.44315,0.467606,140.401,-0.0546875,-0.046875,0.648438,-0.0546875,0,0,295,0
2017/01/13,14:17:05,65,258,-0.338501,0.935242,0.0426636,0.0938721,-11.7984,0.951309,140.304,-0.015625,-0.0859375,0.679688,-0.0703125,-0.0078125,-0.0078125,296,0
2017/01/13,14:17:05,65,274,-0.338501,0.935242,0.0426636,0.0938721,-11.7984,0.951309,140.304,-0.0078125,-0.101562,0.703125,-0.09375,-0.0078125,-0.0078125,297,0
2017/01/13,14:17:05,65,307,-0.337585,0.925415,0.0627441,0.160095,-19.796,0.489456,140.002,-0.0234375,-0.132812,0.796875,-0.117188,-0.0078125,-0.0078125,299,0
2017/01/13,14:17:05,65,359,-0.337585,0.925415,0.0627441,0.160095,-19.796,0.489456,140.002,-0.046875,-0.1875,0.96875,-0.148438,-0.0078125,-0.0078125,301,0
2017/01/13,14:17:05,65,360,-0.331299,0.901978,0.0947876,0.260071,-32.1381,-0.0899811,139.637,-0.101562,-0.203125,0.96875,-0.164062,-0.0078125,-0.0078125,304,0
2017/01/13,14:17:05,65,391,-0.331299,0.901978,0.0947876,0.260071,-32.1381,-0.0899811,139.637,-0.140625,-0.078125,0.960938,-0.171875,-0.0078125,-0.015625,308,0
2017/01/13,14:17:05,65,407,-0.324158,0.860413,0.133545,0.369751,-46.2908,-0.821671,138.361,-0.171875,0.15625,0.679688,-0.1875,0,-0.0234375,311,0
2017/01/13,14:17:05,65,442,-0.324158,0.860413,0.133545,0.369751,-46.2908,-0.821671,138.361,-0.195312,0.8125,0.0625,-0.203125,0.0078125,-0.0390625,315,0.0803402
2017/01/13,14:17:05,65,457,-0.328369,0.794495,0.177124,0.479004,-61.337,-3.96315,132.737,-0.179688,0.6875,0.304688,-0.117188,0.015625,-0.0390625,320,0
2017/01/13,14:17:05,65,492,-0.328369,0.794495,0.177124,0.479004,-61.337,-3.96315,132.737,0.078125,0.234375,0.3125,0.078125,0,-0.0078125,324,0
2017/01/13,14:17:05,65,515,-0.356018,0.820496,0.153625,0.420044,-53.0038,-4.47849,130.853,-0.03125,0.0859375,0.25,0.078125,-0.0390625,0,328,0
2017/01/13,14:17:05,65,520,-0.356018,0.820496,0.153625,0.420044,-53.0038,-4.47849,130.853,-0.179688,0.109375,0.296875,0.078125,-0.0390625,0.0078125,332,0
2017/01/13,14:17:05,65,557,-0.346558,0.859985,0.107605,0.358643,-43.744,-5.04405,134.077,-0.164062,0.101562,0.398438,0.09375,-0.0078125,0.0078125,335,0
2017/01/13,14:17:05,65,641,-0.346558,0.859985,0.107605,0.358643,-43.744,-5.04405,134.077,-0.101562,0.0390625,0.445312,0.109375,0,0.015625,337,0
2017/01/13,14:17:05,65,642,-0.342651,0.89856,0.0812378,0.261841,-31.7512,-2.25424,137.612,-0.140625,-0.0390625,0.5,0.117188,-0.0078125,0.015625,338,0
2017/01/13,14:17:05,65,643,-0.342651,0.89856,0.0812378,0.261841,-31.7512,-2.25424,137.612,-0.164062,-0.125,0.570312,0.109375,0,0.015625,338,0
2017/01/13,14:17:05,65,657,-0.334961,0.926941,0.0561523,0.159424,-19.4613,-0.164185,140.236,-0.171875,-0.15625,0.671875,0.101562,0.0078125,0.0078125,336,0
2017/01/13,14:17:05,65,691,-0.334961,0.926941,0.0561523,0.159424,-19.4613,-0.164185,140.236,-0.195312,-0.148438,0.8125,0.109375,0.015625,0,331,0
2017/01/13,14:17:05,65,708,-0.337097,0.938538,0.0457764,0.0583496,-8.07034,2.69695,140.676,-0.195312,-0.28125,0.875,0.117188,0.0234375,0,324,0
2017/01/13,14:17:05,65,724,-0.337097,0.938538,0.0457764,0.0583496,-8.07034,2.69695,140.676,-0.226562,-0.335938,0.9375,0.125,0.0234375,0,317,0
2017/01/13,14:17:05,65,775,-0.338745,0.938782,0.0415649,-0.046814,3.42468,6.31276,140.129,-0.171875,-0.476562,0.898438,0.125,0.0390625,0.015625,309,0
2017/01/13,14:17:05,65,859,-0.338745,0.938782,0.0415649,-0.046814,3.42468,6.31276,140.129,-0.09375,-0.5,0.835938,0.109375,0.046875,0.0234375,303,0
2017/01/13,14:17:05,65,860,-0.320618,0.935913,0.0494385,-0.137024,12.9901,10.67,140.962,0.0234375,-0.570312,0.75,0.101562,0.046875,0.03125,299,0
2017/01/13,14:17:05,65,861,-0.320618,0.935913,0.0494385,-0.137024,12.9901,10.67,140.962,0.101562,-0.757812,0.570312,0.0859375,0.03125,0.015625,297,0
2017/01/13,14:17:05,65,859,-0.303284,0.931458,0.059021,-0.191956,18.7716,13.8348,141.632,0.101562,-0.804688,0.4375,0.046875,0.0234375,0,297,0
2017/01/13,14:17:05,65,891,-0.303284,0.931458,0.059021,-0.191956,18.7716,13.8348,141.632,0.171875,-0.765625,0.34375,0.015625,0.015625,-0.015625,298,0
2017/01/13,14:17:05,65,925,-0.314331,0.927612,0.0718994,-0.18866,17.7465,15.3416,140.152,0.132812,-0.671875,0.328125,-0.0078125,0,-0.015625,301,0
2017/01/13,14:17:05,65,938,-0.314331,0.927612,0.0718994,-0.18866,17.7465,15.3416,140.152,0.0625,-0.53125,0.359375,-0.03125,-0.0078125,-0.0078125,306,0
2017/01/13,14:17:05,65,975,-0.32135,0.932251,0.0794678,-0.145874,12.7624,14.3628,140.347,0,-0.234375,-0.15625,-0.0625,-0.046875,0.015625,310,0
2017/01/13,14:17:05,65,991,-0.32135,0.932251,0.0794678,-0.145874,12.7624,14.3628,140.347,0.15625,0.132812,0.101562,-0.0859375,-0.125,0.03125,313,0.086516
2017/01/13,14:17:06,66,7,-0.306152,0.950623,-0.000488281,-0.0508423,5.56429,1.73895,144.213,0.164062,0.0234375,0.757812,-0.125,-0.0546875,0.0078125,315,0
2017/01/13,14:17:06,66,24,-0.306152,0.950623,-0.000488281,-0.0508423,5.56429,1.73895,144.213,0.046875,0.015625,0.75,-0.078125,-0.015625,0,316,0
2017/01/13,14:17:06,66,74,-0.300354,0.953247,0.000183105,0.0322266,-3.52877,-1.09137,144.989,0.0078125,-0.0234375,0.671875,-0.03125,-0.015625,-0.0078125,317,0
2017/01/13,14:17:06,66,107,-0.300354,0.953247,0.000183105,0.0322266,-3.52877,-1.09137,144.989,0,0,0.492188,-0.0078125,-0.0078125,0,318,0
2017/01/13,14:17:06,66,108,-0.30072,0.952759,0.00012207,0.0419312,-4.58707,-1.43645,144.908,0,0,0.492188,-0.0078125,0,0,320,0
2017/01/13,14:17:06,66,142,-0.30072,0.952759,0.00012207,0.0419312,-4.58707,-1.43645,144.908,0,0,0.492188,-0.0078125,0,0,322,0
2017/01/13,14:17:06,66,157,-0.300537,0.95282,0.000549316,0.0421753,-4.62887,-1.39723,144.931,0,0,0.492188,-0.0078125,0,0,323,0
2017/01/13,14:17:06,66,224,-0.300537,0.95282,0.000549316,0.0421753,-4.62887,-1.39723,144.931,0,0,0.492188,-0.0078125,0,0,325,0
2017/01/13,14:17:06,66,226,-0.300415,0.952881,0.000610352,0.0413208,-4.53766,-1.36029,144.949,0,0,0.484375,-0.0078125,0,0,326,0
2017/01/13,14:17:06,66,259,-0.300415,0.952881,0.000610352,0.0413208,-4.53766,-1.36029,144.949,0,0,0.484375,-0.0078125,-0.0078125,0,326,0
2017/01/13,14:17:06,66,260,-0.300476,0.952881,0.000671387,0.0415039,-4.55983,-1.3602,144.942,0.0078125,0,0.492188,-0.0078125,-0.0078125,0,326,0
2017/01/13,14:17:06,66,274,-0.300476,0.952881,0.000671387,0.0415039,-4.55983,-1.3602,144.942,0,0,0.492188,-0.0078125,0,0,326,0
2017/01/13,14:17:06,66,324,-0.300476,0.952881,0.000671387,0.0413208,-4.53977,-1.35387,144.943,0,0,0.492188,-0.0078125,0,0,326,0
2017/01/13,14:17:06,66,325,-0.300476,0.952881,0.000671387,0.0413208,-4.53977,-1.35387,144.943,0,0,0.492188,-0.0078125,0,0,326,0
2017/01/13,14:17:06,66,358,-0.300537,0.952881,0.000793457,0.0408936,-4.4972,-1.32593,144.938,0,0,0.492188,-0.0078125,-0.0078125,0,326,0
2017/01/13,14:17:06,66,391,-0.300537,0.952881,0.000793457,0.0408936,-4.4972,-1.32593,144.938,0.0078125,0,0.492188,-0.0078125,-0.0078125,0,326,0
2017/01/13,14:17:06,66,491,-0.300598,0.952881,0.000305176,0.0402832,-4.41348,-1.35847,144.931,0,0,0.492188,-0.0078125,0,0,326,0
2017/01/13,14:17:06,66,493,-0.300598,0.952881,0.000305176,0.0402832,-4.41348,-1.35847,144.931,0,0,0.492188,-0.0078125,0,0,326,0
2017/01/13,14:17:06,66,492,-0.30072,0.952881,0.000183105,0.0394287,-4.31569,-1.34268,144.919,0,0,0.492188,-0.0078125,0,0,326,0
2017/01/13,14:17:06,66,508,-0.30072,0.952881,0.000183105,0.0394287,-4.31569,-1.34268,144.919,0.0078125,0,0.484375,-0.0078125,0,0,326,0
2017/01/13,14:17:06,66,509,-0.300842,0.952881,0.000244141,0.0386353,-4.23093,-1.30896,144.908,0,0,0.492188,-0.0078125,0,0,326,0
2017/01/13,14:17:06,66,542,-0.300842,0.952881,0.000244141,0.0386353,-4.23093,-1.30896,144.908,0,0,0.492188,-0.0078125,0,0,326,0
2017/01/13,14:17:06,66,557,-0.300964,0.952881,0.000305176,0.0377808,-4.13949,-1.2731,144.897,0,0,0.484375,-0.0078125,0,0,326,0
2017/01/13,14:17:06,66,592,-0.300964,0.952881,0.000305176,0.0377808,-4.13949,-1.2731,144.897,0,0,0.492188,-0.0078125,0,0,326,0
2017/01/13,14:17:06,66,659,-0.301147,0.95282,0.000488281,0.0369873,-4.05871,-1.22635,144.877,0,0,0.492188,-0.0078125,0,0,326,0
2017/01/13,14:17:06,66,660,-0.301147,0.95282,0.000488281,0.0369873,-4.05871,-1.22635,144.877,0,0,0.492188,-0.0078125,0,0,326,0
2017/01/13,14:17:06,66,661,-0.301331,0.95282,0.000854492,0.036438,-4.01127,-1.16785,144.86,0,0,0.492188,-0.0078125,0,0,326,0
2017/01/13,14:17:06,66,707,-0.301331,0.95282,0.000854492,0.036438,-4.01127,-1.16785,144.86,0,0,0.460938,-0.0078125,0,0,326,0
2017/01/13,14:17:06,66,741,-0.301575,0.952698,0.00183105,0.0360718,-4.00453,-1.04941,144.833,-0.015625,0.0078125,0.507812,-0.0078125,0,0,326,0
2017/01/13,14:17:06,66,742,-0.301575,0.952698,0.00183105,0.0360718,-4.00453,-1.04941,144.833,0.0078125,-0.0234375,0.554688,-0.0234375,0,-0.0078125,326,0
2017/01/13,14:17:06,66,759,-0.302673,0.952026,0.00640869,0.0440063,-5.02957,-0.830444,144.69,-0.0078125,-0.0234375,0.5625,-0.0390625,0,-0.0078125,326,0
2017/01/13,14:17:06,66,791,-0.302673,0.952026,0.00640869,0.0440063,-5.02957,-0.830444,144.69,0,-0.0390625,0.640625,-0.0546875,0,-0.0078125,326,0
2017/01/13,14:17:06,66,925,-0.303894,0.94928,0.0222778,0.0774536,-9.24117,-0.277466,144.475,-0.046875,-0.0546875,0.726562,-0.078125,-0.0078125,-0.0078125,326,0
2017/01/13,14:17:06,66,926,-0.303894,0.94928,0.0222778,0.0774536,-9.24117,-0.277466,144.475,0.0078125,-0.0859375,0.734375,-0.101562,-0.015625,-0.0078125,327,0
2017/01/13,14:17:06,66,927,-0.304199,0.940613,0.0386963,0.145569,-17.3009,-0.946274,144.013,0.015625,-0.101562,0.796875,-0.125,-0.0078125,-0.0078125,328,0
2017/01/13,14:17:06,66,928,-0.304199,0.940613,0.0386963,0.145569,-17.3009,-0.946274,144.013,-0.0625,-0.148438,0.976562,-0.15625,-0.0078125,-0.0078125,330,0
2017/01/13,14:17:06,66,938,-0.300903,0.918152,0.067627,0.248596,-29.8147,-1.67928,143.262,-0.101562,-0.164062,0.992188,-0.179688,-0.015625,-0.015625,331,0
2017/01/13,14:17:06,66,957,-0.300903,0.918152,0.067627,0.248596,-29.8147,-1.67928,143.262,-0.164062,-0.0625,0.992188,-0.179688,-0.0078125,-0.015625,333,0
2017/01/13,14:17:06,66,975,-0.296326,0.875061,0.103149,0.368408,-44.9016,-3.06076,141.319,-0.1875,0.234375,0.632812,-0.203125,0.0078125,-0.03125,335,0
2017/01/13,14:17:07,67,7,-0.296326,0.875061,0.103149,0.368408,-44.9016,-3.06076,141.319,-0.257812,0.859375,0.21875,-0.164062,0.015625,-0.046875,337,0.0784217
2017/01/13,14:17:07,67,42,-0.312073,0.80957,0.147339,0.474792,-59.3971,-6.51845,134.118,-0.140625,0.703125,0.757812,-0.0625,0.0390625,-0.0546875,339,0
2017/01/13,14:17:07,67,43,-0.312073,0.80957,0.147339,0.474792,-59.3971,-6.51845,134.118,0.0859375,0.148438,0.289062,0.09375,-0.0078125,-0.0234375,342,0
2017/01/13,14:17:07,67,90,-0.35614,0.83252,0.122864,0.406128,-49.7943,-7.54056,130.175,-0.101562,0.132812,0.179688,0.078125,-0.03125,-0.0078125,345,0
2017/01/13,14:17:07,67,91,-0.35614,0.83252,0.122864,0.406128,-49.7943,-7.54056,130.175,-0.210938,0.109375,0.265625,0.078125,-0.0078125,0.0078125,348,0
2017/01/13,14:17:07,67,108,-0.354858,0.867432,0.0856934,0.337952,-40.3247,-6.87015,132.976,-0.140625,0.09375,0.390625,0.0859375,0.0234375,0.015625,350,0
2017/01/13,14:17:07,67,142,-0.354858,0.867432,0.0856934,0.337952,-40.3247,-6.87015,132.976,-0.0625,0.0703125,0.507812,0.109375,0.03125,0.0234375,352,0
2017/01/13,14:17:07,67,174,-0.350525,0.902405,0.0829468,0.23645,-29.0057,-1.05223,137.272,-0.0703125,-0.0625,0.53125,0.117188,0.015625,0.03125,353,0
2017/01/13,14:17:07,67,175,-0.350525,0.902405,0.0829468,0.23645,-29.0057,-1.05223,137.272,-0.132812,-0.164062,0.59375,0.109375,0.015625,0.0234375,353,0
2017/01/13,14:17:07,67,208,-0.33667,0.93042,0.0703125,0.126526,-16.4267,2.72768,140.609,-0.0859375,-0.117188,0.757812,0.101562,0.03125,0.0078125,352,0
2017/01/13,14:17:07,67,274,-0.33667,0.93042,0.0703125,0.126526,-16.4267,2.72768,140.609,-0.09375,-0.132812,0.890625,0.117188,0.0234375,0,350,0
2017/01/13,14:17:07,67,275,-0.33728,0.938904,0.06427,0.0238037,-5.0516,6.02936,140.747,-0.164062,-0.21875,0.953125,0.132812,0.0234375,0,347,0
2017/01/13,14:17:07,67,307,-0.33728,0.938904,0.06427,0.0238037,-5.0516,6.02936,140.747,-0.164062,-0.3125,0.96875,0.140625,0.03125,0.0078125,344,0
2017/01/13,14:17:07,67,324,-0.337097,0.93573,0.0531006,-0.0891724,7.53214,9.25821,139.766,-0.179688,-0.398438,0.929688,0.125,0.03125,0.0234375,342,0
2017/01/13,14:17:07,67,340,-0.337097,0.93573,0.0531006,-0.0891724,7.53214,9.25821,139.766,-0.101562,-0.484375,0.851562,0.109375,0.0390625,0.03125,338,0
2017/01/13,14:17:07,67,358,-0.316711,0.929749,0.0546265,-0.179443,17.4019,13.0373,140.374,0.046875,-0.734375,0.679688,0.09375,0.03125,0.0390625,332,0
2017/01/13,14:17:07,67,391,-0.316711,0.929749,0.0546265,-0.179443,17.4019,13.0373,140.374,0.078125,-0.960938,0.421875,0.0546875,0.015625,0.0390625,326,0
2017/01/13,14:17:07,67,409,-0.286255,0.931946,0.0546265,-0.215637,21.7557,14.0379,143.14,0.117188,-0.953125,0.3125,0.015625,0.015625,0.03125,319,0
2017/01/13,14:17:07,67,474,-0.286255,0.931946,0.0546265,-0.215637,21.7557,14.0379,143.14,0.15625,-0.75,0.328125,-0.0234375,0,0.0078125,312,0
2017/01/13,14:17:07,67,475,-0.271729,0.942566,0.0631714,-0.183716,18.1797,13.3223,145.696,-0.0078125,-0.515625,0.390625,-0.0390625,-0.0234375,-0.0078125,304,0
2017/01/13,14:17:07,67,491,-0.271729,0.942566,0.0631714,-0.183716,18.1797,13.3223,145.696,-0.554688,-0.320312,0.703125,-0.0546875,-0.0234375,-0.0078125,297,0.0885727
2017/01/13,14:17:07,67,507,-0.274658,0.952698,0.0568848,-0.116821,11.0312,10.1262,146.856,-0.476562,-0.0625,0.804688,-0.078125,-0.0625,0.0078125,289,0
2017/01/13,14:17:07,67,541,-0.274658,0.952698,0.0568848,-0.116821,11.0312,10.1262,146.856,0.25,0.0625,0.71875,-0.125,-0.046875,0.03125,284,0
2017/01/13,14:17:07,67,605,-0.252991,0.967346,0.0105591,-0.0111694,0.932055,1.49464,150.675,0.0078125,0.0078125,0.773438,-0.09375,0,-0.0078125,280,0
2017/01/13,14:17:07,67,606,-0.252991,0.967346,0.0105591,-0.0111694,0.932055,1.49464,150.675,-0.0078125,0.015625,0.523438,-0.015625,-0.015625,0,279,0
2017/01/13,14:17:07,67,607,-0.252502,0.966919,0.0148926,0.0328369,-4.07269,0.701782,150.754,-0.015625,0.0078125,0.5,-0.0078125,-0.0078125,0,280,0
2017/01/13,14:17:07,67,642,-0.252502,0.966919,0.0148926,0.0328369,-4.07269,0.701782,150.754,-0.015625,0,0.492188,-0.0078125,-0.0078125,0,281,0
2017/01/13,14:17:07,67,691,-0.251953,0.96698,0.0134277,0.0349121,-4.26014,0.481293,150.81,-0.0078125,0.0078125,0.492188,-0.0078125,-0.0078125,0,283,0
2017/01/13,14:17:07,67,692,-0.251953,0.96698,0.0134277,0.0349121,-4.26014,0.481293,150.81,-0.0078125,0.0078125,0.492188,-0.0078125,-0.0078125,0,285,0
2017/01/13,14:17:07,67,707,-0.251709,0.967102,0.012085,0.0348511,-4.21463,0.334946,150.835,-0.0078125,0.0078125,0.492188,-0.0078125,0,0,286,0
2017/01/13,14:17:07,67,759,-0.251709,0.967102,0.012085,0.0348511,-4.21463,0.334946,150.835,-0.0078125,0.0078125,0.484375,-0.0078125,0,0,288,0
2017/01/13,14:17:07,67,774,-0.251343,0.967224,0.0128784,0.0335083,-4.08831,0.46347,150.883,-0.0078125,0.0078125,0.492188,-0.0078125,0,0,288,0
2017/01/13,14:17:07,67,775,-0.251343,0.967224,0.0128784,0.0335083,-4.08831,0.46347,150.883,-0.0078125,0.0078125,0.484375,-0.0078125,0,0,288,0
2017/01/13,14:17:07,67,808,-0.251282,0.967285,0.0147095,0.0314941,-3.9175,0.725296,150.9,-0.015625,0.0078125,0.492188,-0.0078125,0,0,288,0
2017/01/13,14:17:08,68,4,-0.251282,0.967285,0.0147095,0.0314941,-3.9175,0.725296,150.9,-0.015625,0.0078125,0.484375,-0.0078125,0,0,289,0
2017/01/13,14:17:08,68,5,-0.251282,0.967285,0.0158691,0.0299683,-3.78146,0.898102,150.905,-0.015625,0.0078125,0.492188,-0.0078125,0,0,289,0
2017/01/13,14:17:08,68,6,-0.251282,0.967285,0.0158691,0.0299683,-3.78146,0.898102,150.905,-0.015625,0.0078125,0.484375,-0.0078125,-0.0078125,0,289,0
2017/01/13,14:17:08,68,4,-0.251404,0.967285,0.0157471,0.0292969,-3.70358,0.903412,150.891,-0.015625,0.0078125,0.492188,-0.0078125,0,0,289,0
2017/01/13,14:17:08,68,5,-0.251404,0.967285,0.0157471,0.0292969,-3.70358,0.903412,150.891,-0.015625,0.0078125,0.492188,-0.0078125,0,0,289,0
2017/01/13,14:17:08,68,6,-0.251465,0.967285,0.015564,0.0287476,-3.63739,0.898666,150.883,-0.015625,0.0078125,0.484375,-0.0078125,-0.0078125,0,289,0
2017/01/13,14:17:08,68,24,-0.251465,0.967285,0.015564,0.0287476,-3.63739,0.898666,150.883,-0.015625,0.0078125,0.484375,-0.0078125,-0.0078125,0,289,0
2017/01/13,14:17:08,68,59,-0.25177,0.967224,0.0148926,0.0287476,-3.61832,0.822952,150.845,-0.015625,0.0078125,0.492188,-0.0078125,-0.0078125,0,289,0
2017/01/13,14:17:08,68,60,-0.25177,0.967224,0.0148926,0.0287476,-3.61832,0.822952,150.845,-0.015625,0.0078125,0.492188,-0.0078125,-0.0078125,0,289,0
2017/01/13,14:17:08,68,109,-0.252075,0.967163,0.0144653,0.0289307,-3.62661,0.769058,150.808,-0.015625,0.0078125,0.492188,-0.0078125,-0.0078125,0,289,0
2017/01/13,14:17:08,68,110,-0.252075,0.967163,0.0144653,0.0289307,-3.62661,0.769058,150.808,-0.0078125,0,0.492188,-0.0078125,-0.0078125,-0.0078125,289,0
2017/01/13,14:17:08,68,111,-0.252991,0.966858,0.0145264,0.0303345,-3.78475,0.731674,150.697,-0.0078125,0,0.5,-0.015625,0,-0.0078125,289,0
2017/01/13,14:17:08,68,226,-0.252991,0.966858,0.0145264,0.0303345,-3.78475,0.731674,150.697,-0.015625,-0.0078125,0.5,-0.015625,0,0,289,0
2017/01/13,14:17:08,68,227,-0.253601,0.966431,0.0166626,0.0376587,-4.65986,0.753433,150.624,-0.015625,-0.0078125,0.492188,-0.0234375,0,0,290,0
2017/01/13,14:17:08,68,228,-0.253601,0.966431,0.0166626,0.0376587,-4.65986,0.753433,150.624,-0.0078125,-0.015625,0.507812,-0.03125,0,0,290,0
2017/01/13,14:17:08,68,226,-0.253662,0.965515,0.0223999,0.0535278,-6.58793,0.928635,150.613,-0.015625,-0.03125,0.515625,-0.03125,0,0,290,0
2017/01/13,14:17:08,68,227,-0.253662,0.965515,0.0223999,0.0535278,-6.58793,0.928635,150.613,-0.0234375,-0.046875,0.523438,-0.0390625,0,0,291,0
2017/01/13,14:17:08,68,257,-0.25354,0.963745,0.0314331,0.0765381,-9.4081,1.26488,150.626,-0.0234375,-0.0546875,0.515625,-0.0390625,0,-0.0078125,291,0
2017/01/13,14:17:08,68,324,-0.25354,0.963745,0.0314331,0.0765381,-9.4081,1.26488,150.626,-0.03125,-0.0703125,0.515625,-0.0390625,0,-0.0078125,292,0
2017/01/13,14:17:08,68,325,-0.253784,0.960571,0.0411377,0.105408,-12.9078,1.50098,150.571,-0.0078125,-0.09375,0.585938,-0.046875,-0.0078125,-0.0078125,293,0
2017/01/13,14:17:08,68,374,-0.253784,0.960571,0.0411377,0.105408,-12.9078,1.50098,150.571,-0.0625,-0.117188,0.625,-0.0625,-0.0078125,-0.0078125,294,0
2017/01/13,14:17:08,68,441,-0.254028,0.954834,0.0489502,0.145935,-17.6714,1.16286,150.385,-0.0078125,-0.132812,0.648438,-0.078125,-0.0078125,-0.0078125,296,0
2017/01/13,14:17:08,68,442,-0.254028,0.954834,0.0489502,0.145935,-17.6714,1.16286,150.385,-0.0625,-0.179688,0.804688,-0.101562,-0.0078125,-0.0078125,298,0
2017/01/13,14:17:08,68,443,-0.254761,0.940674,0.0628052,0.215088,-25.8907,0.545609,149.818,-0.125,-0.164062,0.851562,-0.132812,0,-0.015625,300,0
2017/01/13,14:17:08,68,475,-0.254761,0.940674,0.0628052,0.215088,-25.8907,0.545609,149.818,-0.140625,-0.242188,0.976562,-0.15625,0.0078125,-0.0234375,303,0
2017/01/13,14:17:08,68,476,-0.260559,0.906799,0.0996094,0.315979,-38.6798,1.17371,148.349,-0.171875,-0.148438,0.992188,-0.164062,0.03125,-0.03125,306,0
2017/01/13,14:17:08,68,491,-0.260559,0.906799,0.0996094,0.315979,-38.6798,1.17371,148.349,-0.125,0.109375,0.890625,-0.171875,0.046875,-0.0390625,309,0
2017/01/13,14:17:08,68,526,-0.281616,0.851624,0.158325,0.412598,-52.3662,3.50133,145.126,-0.0546875,0.484375,0.46875,-0.210938,0.0546875,-0.0625,312,0
2017/01/13,14:17:08,68,527,-0.281616,0.851624,0.158325,0.412598,-52.3662,3.50133,145.126,-0.046875,0.851562,0.5625,-0.148438,0.046875,-0.0703125,315,0.0763965
2017/01/13,14:17:08,68,575,-0.328308,0.785217,0.196594,0.486755,-63.317,-1.38792,133.763,0.109375,0.375,0.421875,0.078125,0.0234375,-0.0546875,319,0
2017/01/13,14:17:08,68,607,-0.328308,0.785217,0.196594,0.486755,-63.317,-1.38792,133.763,0.0625,0.0390625,0.320312,0.09375,-0.015625,-0.0390625,322,0
2017/01/13,14:17:08,68,608,-0.380432,0.812195,0.150085,0.416016,-52.1823,-6.81297,126.464,-0.046875,0.101562,0.289062,0.0859375,-0.03125,-0.015625,324,0
2017/01/13,14:17:08,68,641,-0.380432,0.812195,0.150085,0.416016,-52.1823,-6.81297,126.464,-0.125,0.0390625,0.359375,0.101562,-0.0234375,0.0078125,326,0
2017/01/13,14:17:08,68,675,-0.384583,0.850952,0.101929,0.342834,-41.4428,-6.91347,128.741,-0.132812,-0.015625,0.390625,0.101562,-0.0078125,0.015625,328,0
2017/01/13,14:17:08,68,708,-0.384583,0.850952,0.101929,0.342834,-41.4428,-6.91347,128.741,-0.125,-0.0390625,0.476562,0.109375,0,0.015625,328,0
2017/01/13,14:17:08,68,709,-0.376953,0.889465,0.0743408,0.247498,-29.7573,-3.58878,133.112,-0.148438,-0.132812,0.539062,0.109375,0,0.015625,328,0
2017/01/13,14:17:08,68,741,-0.376953,0.889465,0.0743408,0.247498,-29.7573,-3.58878,133.112,-0.179688,-0.164062,0.617188,0.101562,0.0078125,0.0078125,326,0
2017/01/13,14:17:08,68,757,-0.370422,0.9151,0.0525513,0.150391,-18.3112,-0.919602,135.777,-0.1875,-0.148438,0.71875,0.101562,0.015625,0.0078125,325,0
2017/01/13,14:17:08,68,792,-0.370422,0.9151,0.0525513,0.150391,-18.3112,-0.919602,135.777,-0.234375,-0.226562,0.789062,0.109375,0.0234375,0.0078125,323,0
2017/01/13,14:17:08,68,824,-0.367981,0.92749,0.0407104,0.0513916,-7.19761,2.17755,136.856,-0.210938,-0.21875,0.882812,0.117188,0.0390625,0.0078125,321,0
2017/01/13,14:17:08,68,840,-0.367981,0.92749,0.0407104,0.0513916,-7.19761,2.17755,136.856,-0.125,-0.265625,0.898438,0.125,0.046875,0.015625,318,0
2017/01/13,14:17:08,68,857,-0.361145,0.92981,0.0418091,-0.057373,4.38705,6.86543,137.284,-0.0859375,-0.367188,0.875,0.117188,0.0390625,0.03125,315,0
2017/01/13,14:17:08,68,892,-0.361145,0.92981,0.0418091,-0.057373,4.38705,6.86543,137.284,-0.0234375,-0.492188,0.828125,0.101562,0.0390625,0.046875,312,0
2017/01/13,14:17:08,68,907,-0.331604,0.931213,0.0444336,-0.144409,13.856,10.5963,139.507,-0.0234375,-0.648438,0.75,0.0859375,0.03125,0.046875,308,0
2017/01/13,14:17:08,68,975,-0.331604,0.931213,0.0444336,-0.144409,13.856,10.5963,139.507,-0.015625,-0.851562,0.539062,0.078125,0.03125,0.0390625,304,0
2017/01/13,14:17:09,69,45,-0.293518,0.934448,0.048645,-0.195496,19.6823,12.6183,142.926,0.117188,-0.984375,0.367188,0.0390625,0.0390625,0.015625,300,0
2017/01/13,14:17:09,69,46,-0.293518,0.934448,0.048645,-0.195496,19.6823,12.6183,142.926,0.328125,-0.914062,0.328125,0.0078125,0.0234375,0,294,0
2017/01/13,14:17:09,69,55,-0.280701,0.9375,0.0700684,-0.19342,18.8642,14.6894,144.21,0.234375,-0.757812,0.34375,-0.0234375,-0.0078125,0,289,0
2017/01/13,14:17:09,69,56,-0.280701,0.9375,0.0700684,-0.19342,18.8642,14.6894,144.21,-0.492188,-0.0703125,0.078125,-0.0703125,-0.046875,0.0078125,285,0.104917
2017/01/13,14:17:09,69,74,-0.281006,0.949402,0.0588379,-0.127014,12.0115,10.7905,145.886,0,0.695312,0.078125,-0.101562,-0.125,0.0078125,282,0
2017/01/13,14:17:09,69,91,-0.281006,0.949402,0.0588379,-0.127014,12.0115,10.7905,145.886,0.148438,-0.0703125,0.992188,-0.148438,-0.0234375,0.0078125,280,0
2017/01/13,14:17:09,69,125,-0.283752,0.958862,0.00299072,-0.00561523,0.51975,0.51123,147.028,-0.0703125,0.046875,0.734375,-0.078125,-0.0234375,-0.0078125,278,0
2017/01/13,14:17:09,69,126,-0.283752,0.958862,0.00299072,-0.00561523,0.51975,0.51123,147.028,0,-0.0078125,0.5,-0.015625,-0.0078125,0,278,0
2017/01/13,14:17:09,69,157,-0.283447,0.958069,0.00567627,0.0405884,-4.64552,-0.697525,147.01,-0.0078125,0,0.492188,-0.0078125,0,0,279,0
2017/01/13,14:17:09,69,224,-0.283447,0.958069,0.00567627,0.0405884,-4.64552,-0.697525,147.01,-0.0078125,0,0.492188,-0.0078125,0,0,280,0
2017/01/13,14:17:09,69,225,-0.282837,0.958191,0.00701904,0.0413818,-4.77677,-0.572586,147.085,-0.0078125,0,0.484375,-0.0078125,0,0,281,0
2017/01/13,14:17:09,69,260,-0.282837,0.958191,0.00701904,0.0413818,-4.77677,-0.572586,147.085,-0.0078125,0,0.492188,-0.0078125,0,0,282,0
2017/01/13,14:17:09,69,275,-0.282715,0.958313,0.00714111,0.0404053,-4.67362,-0.526581,147.105,-0.0078125,0,0.492188,-0.0078125,0,0,283,0
2017/01/13,14:17:09,69,276,-0.282715,0.958313,0.00714111,0.0404053,-4.67362,-0.526581,147.105,-0.0078125,0,0.492188,-0.0078125,0,0,284,0
2017/01/13,14:17:09,69,341,-0.282654,0.958374,0.00732422,0.0395508,-4.58565,-0.47821,147.116,-0.0078125,0,0.492188,-0.0078125,0,0,284,0
2017/01/13,14:17:09,69,342,-0.282654,0.958374,0.00732422,0.0395508,-4.58565,-0.47821,147.116,-0.0078125,0,0.492188,-0.0078125,0,0,284,0
2017/01/13,14:17:09,69,357,-0.282654,0.958374,0.00762939,0.0388794,-4.5216,-0.422775,147.118,-0.0078125,0,0.492188,-0.0078125,0,0,284,0
2017/01/13,14:17:09,69,624,-0.282654,0.958374,0.00762939,0.0388794,-4.5216,-0.422775,147.118,-0.0078125,0,0.492188,-0.0078125,0,0,284,0
2017/01/13,14:17:09,69,625,-0.282715,0.958374,0.0078125,0.038208,-4.45365,-0.381012,147.114,-0.0078125,0,0.492188,-0.0078125,0,0,284,0
2017/01/13,14:17:09,69,626,-0.282715,0.958374,0.0078125,0.038208,-4.45365,-0.381012,147.114,-0.0078125,0,0.492188,-0.0078125,0,0,284,0
2017/01/13,14:17:09,69,642,-0.282715,0.958435,0.00805664,0.0375366,-4.38789,-0.332184,147.118,-0.0078125,0,0.492188,-0.0078125,0,0,284,0
2017/01/13,14:17:09,69,643,-0.282715,0.958435,0.00836182,0.0369263,-4.33058,-0.278732,147.12,-0.0078125,0,0.492188,-0.0078125,0,0,284,0
2017/01/13,14:17:09,69,644,-0.282715,0.958435,0.00836182,0.0369263,-4.33058,-0.278732,147.12,-0.0078125,0,0.492188,-0.0078125,0,0,284,0
2017/01/13,14:17:09,69,675,-0.282837,0.958435,0.00866699,0.0362549,-4.26667,-0.223785,147.109,-0.0078125,0,0.484375,-0.0078125,0,0,284,0
2017/01/13,14:17:09,69,707,-0.282837,0.958435,0.00866699,0.0362549,-4.26667,-0.223785,147.109,-0.0078125,0,0.492188,-0.0078125,0,0,284,0
2017/01/13,14:17:09,69,741,-0.282898,0.958435,0.00909424,0.0355835,-4.20668,-0.155151,147.105,-0.0078125,0,0.484375,-0.0078125,0,0,284,0
2017/01/13,14:17:09,69,742,-0.282898,0.958435,0.00909424,0.0355835,-4.20668,-0.155151,147.105,-0.0078125,0,0.492188,-0.0078125,0,0,284,0
2017/01/13,14:17:09,69,743,-0.28302,0.958374,0.00958252,0.0349731,-4.15522,-0.0820923,147.092,-0.0078125,0,0.492188,-0.0078125,0,0,284,0
2017/01/13,14:17:09,69,757,-0.28302,0.958374,0.00958252,0.0349731,-4.15522,-0.0820923,147.092,-0.0078125,0,0.492188,-0.0078125,0,0,284,0
2017/01/13,14:17:09,69,758,-0.283203,0.958374,0.010498,0.0344849,-4.13145,0.0338745,147.076,-0.0078125,0,0.492188,-0.0078125,0,0,284,0
2017/01/13,14:17:09,69,759,-0.283203,0.958374,0.010498,0.0344849,-4.13145,0.0338745,147.076,-0.0078125,0,0.492188,-0.0078125,0,0,284,0
2017/01/13,14:17:09,69,792,-0.283386,0.958313,0.0120239,0.0341797,-4.14751,0.211014,147.06,-0.0078125,0,0.492188,-0.0078125,0,0,285,0
2017/01/13,14:17:09,69,793,-0.283386,0.958313,0.0120239,0.0341797,-4.14751,0.211014,147.06,-0.015625,0,0.492188,-0.0078125,0,0,284,0
2017/01/13,14:17:09,69,794,-0.283813,0.95813,0.0163574,0.0346069,-4.33574,0.672363,147.025,-0.015625,-0.0078125,0.492188,-0.0078125,0,0,285,0
2017/01/13,14:17:09,69,824,-0.283813,0.95813,0.0163574,0.0346069,-4.33574,0.672363,147.025,-0.0234375,0,0.515625,-0.015625,0,0,285,0
2017/01/13,14:17:09,69,888,-0.284729,0.957153,0.0261841,0.0454712,-5.85185,1.39575,146.939,-0.03125,-0.0234375,0.585938,-0.03125,0,-0.0078125,285,0
2017/01/13,14:17:09,69,889,-0.284729,0.957153,0.0261841,0.0454712,-5.85185,1.39575,146.939,-0.0390625,-0.015625,0.65625,-0.0546875,0.0078125,-0.0078125,285,0
2017/01/13,14:17:09,69,909,-0.286804,0.952942,0.0449829,0.0872192,-11.0714,2.08488,146.702,-0.0546875,-0.0390625,0.703125,-0.078125,0,-0.0078125,285,0
2017/01/13,14:17:09,69,910,-0.286804,0.952942,0.0449829,0.0872192,-11.0714,2.08488,146.702,-0.0234375,-0.078125,0.695312,-0.101562,0,-0.0078125,285,0
2017/01/13,14:17:09,69,974,-0.288269,0.940735,0.067627,0.1651,-20.4641,1.96069,146.281,-0.0859375,-0.15625,0.84375,-0.125,-0.0078125,-0.0078125,286,0
2017/01/13,14:17:09,69,975,-0.288269,0.940735,0.067627,0.1651,-20.4641,1.96069,146.281,-0.101562,-0.125,0.945312,-0.15625,0,-0.015625,287,0
2017/01/13,14:17:09,69,991,-0.289185,0.911072,0.104675,0.274475,-34.1024,2.21387,145.459,-0.0546875,-0.132812,0.96875,-0.171875,0.0078125,-0.0234375,288,0
2017/01/13,14:17:10,70,58,-0.289185,0.911072,0.104675,0.274475,-34.1024,2.21387,145.459,-0.132812,-0.03125,0.953125,-0.171875,0.0078125,-0.0234375,290,0
2017/01/13,14:17:10,70,59,-0.29187,0.861572,0.150879,0.386841,-48.9954,2.98604,143.932,-0.195312,0.132812,0.734375,-0.1875,0.0234375,-0.03125,292,0
2017/01/13,14:17:10,70,142,-0.29187,0.861572,0.150879,0.386841,-48.9954,2.98604,143.932,-0.164062,0.742188,-0.015625,-0.210938,0.0390625,-0.0546875,295,0.0785876
2017/01/13,14:17:10,70,143,-0.29187,0.861572,0.150879,0.386841,-48.9954,2.98604,143.932,-0.195312,0.796875,0.1875,-0.125,0.0390625,-0.0625,298,0
2017/01/13,14:17:10,70,178,-0.32135,0.798157,0.198914,0.469177,-61.2582,1.90524,137.267,0.132812,0.328125,0.34375,0.09375,0.0078125,-0.046875,301,0
2017/01/13,14:17:10,70,192,-0.372986,0.824097,0.153687,0.397644,-50.3575,-3.894,129.466,0.015625,0.132812,0.28125,0.0859375,-0.0390625,-0.03125,304,0
2017/01/13,14:17:10,70,193,-0.372986,0.824097,0.153687,0.397644,-50.3575,-3.894,129.466,-0.15625,0.125,0.335938,0.0859375,-0.0390625,-0.015625,307,0
2017/01/13,14:17:10,70,241,-0.384949,0.857483,0.0953979,0.327698,-39.4524,-6.59612,129.279,-0.171875,0.101562,0.40625,0.101562,-0.015625,-0.0078125,310,0
2017/01/13,14:17:10,70,242,-0.384949,0.857483,0.0953979,0.327698,-39.4524,-6.59612,129.279,-0.132812,0.0078125,0.445312,0.117188,0,0.0078125,313,0
2017/01/13,14:17:10,70,258,-0.382629,0.893738,0.0635376,0.225342,-26.8345,-3.78305,132.743,-0.195312,-0.0703125,0.515625,0.109375,0,0.0234375,315,0
2017/01/13,14:17:10,70,275,-0.382629,0.893738,0.0635376,0.225342,-26.8345,-3.78305,132.743,-0.226562,-0.132812,0.609375,0.109375,0.0078125,0.0234375,317,0
2017/01/13,14:17:10,70,307,-0.365784,0.921692,0.0471191,0.120178,-14.8332,-0.0628204,136.699,-0.210938,-0.171875,0.71875,0.109375,0.0234375,0.0234375,318,0
2017/01/13,14:17:10,70,391,-0.365784,0.921692,0.0471191,0.120178,-14.8332,-0.0628204,136.699,-0.210938,-0.226562,0.835938,0.109375,0.0234375,0.0234375,319,0
2017/01/13,14:17:10,70,392,-0.349487,0.935852,0.0422974,0.0153809,-3.34529,3.92986,139.159,-0.25,-0.273438,0.921875,0.117188,0.0234375,0.0234375,317,0
2017/01/13,14:17:10,70,393,-0.349487,0.935852,0.0422974,0.0153809,-3.34529,3.92986,139.159,-0.273438,-0.34375,0.953125,0.125,0.03125,0.015625,315,0
2017/01/13,14:17:10,70,458,-0.3349,0.936951,0.0424194,-0.0900879,8.07118,8.11943,140.089,-0.1875,-0.445312,0.929688,0.125,0.0390625,0.0234375,311,0
2017/01/13,14:17:10,70,459,-0.3349,0.936951,0.0424194,-0.0900879,8.07118,8.11943,140.089,-0.09375,-0.5,0.859375,0.117188,0.046875,0.0234375,306,0
2017/01/13,14:17:10,70,460,-0.31842,0.92981,0.0543823,-0.176331,17.0541,12.8997,140.25,0.0390625,-0.6875,0.726562,0.101562,0.0546875,0.0078125,300,0
2017/01/13,14:17:10,70,475,-0.31842,0.92981,0.0543823,-0.176331,17.0541,12.8997,140.25,0.226562,-0.921875,0.507812,0.0703125,0.0390625,-0.015625,294,0
2017/01/13,14:17:10,70,525,-0.328796,0.918274,0.0740356,-0.207947,19.4643,16.8116,137.696,0.265625,-0.976562,0.34375,0.03125,0.015625,-0.03125,289,0
2017/01/13,14:17:10,70,526,-0.328796,0.918274,0.0740356,-0.207947,19.4643,16.8116,137.696,0.1875,-0.851562,0.320312,-0.0078125,0,-0.0234375,284,0
2017/01/13,14:17:10,70,541,-0.351501,0.91626,0.0869751,-0.171326,14.6441,16.8113,135.848,0.078125,-0.65625,0.359375,-0.0390625,-0.0078125,-0.015625,280,0
2017/01/13,14:17:10,70,591,-0.351501,0.91626,0.0869751,-0.171326,14.6441,16.8113,135.848,-0.0703125,-0.210938,0.0546875,-0.078125,-0.046875,0.015625,278,0
2017/01/13,14:17:10,70,608,-0.341553,0.93335,0.0614624,-0.0918579,7.43988,10.3106,139.128,-0.09375,0.03125,0.140625,-0.09375,-0.125,0.0390625,277,0.105482
2017/01/13,14:17:10,70,657,-0.341553,0.93335,0.0614624,-0.0918579,7.43988,10.3106,139.128,0.351562,0.046875,0.679688,-0.117188,-0.078125,0.015625,277,0
2017/01/13,14:17:10,70,658,-0.326172,0.945007,0.000549316,0.0239258,-2.61236,-0.835678,141.896,0.0078125,-0.015625,0.796875,-0.101562,-0.015625,0,278,0
2017/01/13,14:17:10,70,690,-0.326172,0.945007,0.000549316,0.0239258,-2.61236,-0.835678,141.896,-0.0078125,0,0.484375,-0.0078125,-0.0078125,0,279,0
2017/01/13,14:17:10,70,691,-0.324646,0.944702,0.00585938,0.0462036,-5.22699,-1.08911,142.02,0,-0.0078125,0.492188,-0.0078125,-0.0078125,0,281,0
2017/01/13,14:17:10,70,758,-0.324646,0.944702,0.00585938,0.0462036,-5.22699,-1.08911,142.02,0,0,0.492188,-0.0078125,0,0,282,0
2017/01/13,14:17:10,70,760,-0.32428,0.944824,0.00579834,0.0452881,-5.12559,-1.05948,142.066,0,0,0.492188,-0.0078125,0,0,283,0
2017/01/13,14:17:10,70,807,-0.32428,0.944824,0.00579834,0.0452881,-5.12559,-1.05948,142.066,0,0,0.492188,-0.0078125,0,0,283,0
