date,time,,millisec,quaternion.w,quaternion.x,quaternion.y,quaternion.z,angle.x,angle.y,angle.z,acc.x,acc.y,acc.z,gyro.x,gyro.y,gyro.z,compass,gesture,direction,angle,power
2017/01/13,14:14:55,55,169,0.110718,-0.993713,-0.00360107,-0.017395,-2.0269,0.189484,167.288,-0.0078125,-0.0078125,0.492188,-0.0078125,-0.0078125,0,224,,,,0
2017/01/13,14:14:55,55,184,0.110718,-0.993713,-0.00360107,-0.017395,-2.0269,0.189484,167.288,-0.0078125,-0.0078125,0.492188,-0.0078125,-0.0078125,0,225,,,,0
2017/01/13,14:14:55,55,201,0.110718,-0.993713,-0.00360107,-0.0174561,-2.03386,0.188705,167.288,-0.0078125,-0.0078125,0.492188,-0.0078125,-0.0078125,0,225,,,,0
2017/01/13,14:14:55,55,234,0.110718,-0.993713,-0.00360107,-0.0174561,-2.03386,0.188705,167.288,-0.0078125,0,0.492188,-0.0078125,-0.0078125,0,225,,,,0
2017/01/13,14:14:55,55,252,0.110718,-0.993713,-0.00360107,-0.0174561,-2.03386,0.188705,167.288,-0.0078125,-0.0078125,0.492188,-0.0078125,-0.0078125,0,225,,,,0
2017/01/13,14:14:55,55,270,0.110718,-0.993713,-0.00360107,-0.0174561,-2.03386,0.188705,167.288,-0.0078125,0,0.492188,-0.0078125,-0.0078125,0,225,,,,0
2017/01/13,14:14:55,55,320,0.110657,-0.993713,-0.00360107,-0.017395,-2.02688,0.189606,167.295,-0.0078125,-0.0078125,0.492188,-0.0078125,-0.0078125,0,225,,,,0
2017/01/13,14:14:55,55,335,0.110657,-0.993713,-0.00360107,-0.017395,-2.02688,0.189606,167.295,-0.0078125,-0.0078125,0.492188,-0.0078125,-0.0078125,0,225,,,,0
2017/01/13,14:14:55,55,352,0.110657,-0.993713,-0.00360107,-0.017395,-2.02688,0.189606,167.295,-0.0078125,0,0.492188,-0.0078125,-0.0078125,0,225,,,,0
2017/01/13,14:14:55,55,381,0.110657,-0.993713,-0.00360107,-0.017395,-2.02688,0.189606,167.295,-0.0078125,-0.0078125,0.492188,-0.0078125,-0.0078125,0,225,,,,0
2017/01/13,14:14:55,55,435,0.110657,-0.993713,-0.00360107,-0.017395,-2.02688,0.189606,167.295,-0.0078125,-0.0078125,0.492188,-0.0078125,-0.0078125,0,225,,,,0
2017/01/13,14:14:55,55,436,0.110657,-0.993713,-0.00360107,-0.017395,-2.02688,0.189606,167.295,-0.015625,-0.0078125,0.492188,-0.0078125,-0.0078125,0,225,,,,0
2017/01/13,14:14:55,55,451,0.110657,-0.993713,-0.00360107,-0.017395,-2.02688,0.189606,167.295,-0.0078125,-0.0078125,0.492188,-0.0078125,-0.0078125,0,225,,,,0
2017/01/13,14:14:55,55,485,0.110657,-0.993713,-0.00360107,-0.017395,-2.02688,0.189606,167.295,-0.0078125,-0.0078125,0.492188,-0.0078125,-0.0078125,0,225,,,,0
2017/01/13,14:14:55,55,501,0.110657,-0.993713,-0.00360107,-0.017395,-2.02688,0.189606,167.295,-0.0078125,-0.0078125,0.492188,-0.0078125,-0.0078125,0,225,,,,0
2017/01/13,14:14:55,55,544,0.110657,-0.993713,-0.00360107,-0.017395,-2.02688,0.189606,167.295,-0.0078125,-0.0078125,0.492188,-0.0078125,-0.0078125,0,225,,,,0
2017/01/13,14:14:55,55,584,0.110657,-0.993713,-0.00366211,-0.0174561,-2.03461,0.19577,167.295,-0.0078125,-0.0078125,0.492188,-0.0078125,-0.0078125,0,225,,,,0
2017/01/13,14:14:55,55,585,0.110657,-0.993713,-0.00366211,-0.0174561,-2.03461,0.19577,167.295,-0.0078125,-0.0078125,0.492188,-0.0078125,-0.0078125,0,224,,,,0
2017/01/13,14:14:55,55,635,0.110657,-0.993713,-0.00360107,-0.0174561,-2.03383,0.188828,167.295,-0.0078125,-0.0078125,0.492188,-0.0078125,-0.0078125,0,224,,,,0
2017/01/13,14:14:55,55,651,0.110657,-0.993713,-0.00360107,-0.0174561,-2.03383,0.188828,167.295,-0.0078125,-0.0078125,0.492188,-0.0078125,-0.0078125,0,224,,,,0
2017/01/13,14:14:55,55,652,0.110657,-0.993713,-0.00366211,-0.0174561,-2.03461,0.19577,167.295,-0.0078125,0,0.492188,-0.0078125,0,0,224,,,,0
2017/01/13,14:14:55,55,686,0.110657,-0.993713,-0.00366211,-0.0174561,-2.03461,0.19577,167.295,-0.0078125,-0.0078125,0.492188,-0.0078125,-0.0078125,0,224,,,,0
2017/01/13,14:14:55,55,702,0.110657,-0.993713,-0.00366211,-0.0174561,-2.03461,0.19577,167.295,-0.0078125,0,0.492188,-0.0078125,-0.0078125,0,224,,,,0
2017/01/13,14:14:55,55,718,0.110657,-0.993713,-0.00366211,-0.0174561,-2.03461,0.19577,167.295,-0.0078125,-0.0078125,0.492188,-0.0078125,-0.0078125,0,224,,,,0
2017/01/13,14:14:55,55,752,0.110657,-0.993713,-0.00366211,-0.0174561,-2.03461,0.19577,167.295,-0.0078125,-0.0078125,0.492188,-0.0078125,-0.0078125,0,224,,,,0
2017/01/13,14:14:55,55,802,0.110657,-0.993713,-0.00366211,-0.0174561,-2.03461,0.19577,167.295,-0.0078125,-0.0078125,0.492188,-0.0078125,-0.0078125,0,224,,,,0
2017/01/13,14:14:55,55,803,0.110657,-0.993713,-0.00366211,-0.0174561,-2.03461,0.19577,167.295,-0.0078125,-0.0078125,0.492188,-0.0078125,-0.0078125,0,224,,,,0
2017/01/13,14:14:55,55,835,0.110657,-0.993713,-0.00366211,-0.0174561,-2.03461,0.19577,167.295,-0.0078125,-0.0078125,0.492188,-0.0078125,-0.0078125,0,224,,,,0
2017/01/13,14:14:55,55,869,0.110657,-0.993713,-0.00366211,-0.0174561,-2.03461,0.19577,167.295,-0.0078125,0,0.492188,-0.0078125,-0.0078125,0,224,,,,0
2017/01/13,14:14:55,55,870,0.110657,-0.993713,-0.00366211,-0.0174561,-2.03461,0.19577,167.295,-0.0078125,-0.0078125,0.492188,-0.0078125,0,0,224,,,,0
2017/01/13,14:14:55,55,901,0.110596,-0.993713,-0.00366211,-0.0174561,-2.03458,0.195892,167.302,-0.0078125,-0.0078125,0.492188,-0.0078125,-0.0078125,0,224,,,,0
2017/01/13,14:14:55,55,951,0.110596,-0.993713,-0.00366211,-0.0174561,-2.03458,0.195892,167.302,-0.0078125,0,0.492188,-0.0078125,-0.0078125,0,224,,,,0
2017/01/13,14:14:55,55,952,0.110596,-0.993713,-0.00366211,-0.0174561,-2.03458,0.195892,167.302,-0.0078125,-0.0078125,0.492188,-0.0078125,-0.0078125,0,224,,,,0
2017/01/13,14:14:56,56,13,0.110596,-0.993713,-0.00366211,-0.0174561,-2.03458,0.195892,167.302,-0.0078125,0,0.492188,-0.0078125,-0.0078125,0,225,,,,0
2017/01/13,14:14:56,56,14,0.110596,-0.993713,-0.00366211,-0.0174561,-2.03458,0.195892,167.302,-0.0078125,-0.0078125,0.492188,-0.0078125,-0.0078125,0,224,,,,0
2017/01/13,14:14:56,56,35,0.110596,-0.993713,-0.00366211,-0.0174561,-2.03458,0.195892,167.302,-0.0078125,-0.0078125,0.492188,-0.0078125,-0.0078125,0,224,,,,0
2017/01/13,14:14:56,56,52,0.110596,-0.993713,-0.00366211,-0.0174561,-2.03458,0.195892,167.302,-0.0078125,-0.0078125,0.492188,-0.0078125,-0.0078125,0,224,,,,0
2017/01/13,14:14:56,56,101,0.110596,-0.993713,-0.00366211,-0.0174561,-2.03458,0.195892,167.302,-0.0078125,-0.0078125,0.492188,-0.0078125,-0.0078125,0,224,,,,0
2017/01/13,14:14:56,56,102,0.110596,-0.993713,-0.00366211,-0.0175171,-2.04153,0.195129,167.302,-0.0078125,-0.0078125,0.492188,-0.0078125,-0.0078125,0,225,,,,0
2017/01/13,14:14:56,56,136,0.110596,-0.993713,-0.00366211,-0.0175171,-2.04153,0.195129,167.302,-0.0078125,-0.0078125,0.492188,-0.0078125,-0.0078125,0,225,,,,0
2017/01/13,14:14:56,56,152,0.110596,-0.993713,-0.00366211,-0.0175171,-2.04153,0.195129,167.302,-0.0078125,-0.0078125,0.492188,-0.0078125,-0.0078125,0,225,,,,0
2017/01/13,14:14:56,56,169,0.110596,-0.993713,-0.00366211,-0.0175171,-2.04153,0.195129,167.302,-0.0078125,0,0.492188,-0.0078125,-0.0078125,0,225,,,,0
2017/01/13,14:14:56,56,201,0.110596,-0.993713,-0.00366211,-0.0175171,-2.04153,0.195129,167.302,-0.0078125,0,0.492188,-0.0078125,-0.0078125,0,225,,,,0
2017/01/13,14:14:56,56,234,0.110596,-0.993713,-0.00366211,-0.0175171,-2.04153,0.195129,167.302,-0.0078125,0,0.492188,-0.0078125,-0.0078125,0,225,,,,0
2017/01/13,14:14:56,56,252,0.110596,-0.993713,-0.00366211,-0.0175171,-2.04153,0.195129,167.302,-0.0078125,-0.0078125,0.492188,-0.0078125,-0.0078125,0,225,,,,0
2017/01/13,14:14:56,56,285,0.110596,-0.993713,-0.00366211,-0.0175171,-2.04153,0.195129,167.302,-0.0078125,0,0.492188,-0.0078125,-0.0078125,0,225,,,,0
2017/01/13,14:14:56,56,301,0.110596,-0.993713,-0.00366211,-0.0175171,-2.04153,0.195129,167.302,-0.0078125,0,0.492188,-0.0078125,-0.0078125,0,225,,,,0
2017/01/13,14:14:56,56,318,0.110596,-0.993713,-0.00366211,-0.0175171,-2.04153,0.195129,167.302,-0.0078125,-0.0078125,0.492188,-0.0078125,-0.0078125,0,225,,,,0
2017/01/13,14:14:56,56,351,0.110596,-0.993713,-0.00366211,-0.0174561,-2.03458,0.195892,167.302,-0.0078125,-0.0078125,0.492188,-0.0078125,-0.0078125,0,225,,,,0
2017/01/13,14:14:56,56,386,0.110596,-0.993713,-0.00366211,-0.0174561,-2.03458,0.195892,167.302,-0.0078125,-0.0078125,0.492188,-0.0078125,-0.0078125,0,225,,,,0
2017/01/13,14:14:56,56,403,0.110596,-0.993713,-0.00360107,-0.0174561,-2.03381,0.18895,167.302,-0.0078125,-0.0078125,0.492188,-0.0078125,-0.0078125,0,225,,,,0
2017/01/13,14:14:56,56,435,0.110596,-0.993713,-0.00360107,-0.0174561,-2.03381,0.18895,167.302,-0.0078125,-0.0078125,0.492188,-0.0078125,-0.0078125,0,225,,,,0
2017/01/13,14:14:56,56,453,0.110596,-0.993713,-0.00360107,-0.0174561,-2.03381,0.18895,167.302,-0.0078125,-0.0078125,0.492188,-0.0078125,-0.0078125,0,225,,,,0
2017/01/13,14:14:56,56,477,0.110596,-0.993713,-0.00360107,-0.0174561,-2.03381,0.18895,167.302,-0.0078125,0,0.492188,-0.0078125,-0.0078125,0,225,,,,0
2017/01/13,14:14:56,56,503,0.110596,-0.993713,-0.00360107,-0.0174561,-2.03381,0.18895,167.302,-0.0078125,-0.0078125,0.492188,-0.0078125,-0.0078125,0,225,,,,0
2017/01/13,14:14:56,56,534,0.110596,-0.993713,-0.00360107,-0.0174561,-2.03381,0.18895,167.302,-0.0078125,-0.0078125,0.492188,-0.0078125,-0.0078125,0,225,,,,0
2017/01/13,14:14:56,56,552,0.110596,-0.993713,-0.00360107,-0.0174561,-2.03381,0.18895,167.302,-0.0078125,0,0.492188,-0.0078125,-0.0078125,0,225,,,,0
2017/01/13,14:14:56,56,585,0.110596,-0.993713,-0.00360107,-0.0174561,-2.03381,0.18895,167.302,-0.0078125,-0.0078125,0.492188,-0.0078125,-0.0078125,0,225,,,,0
2017/01/13,14:14:56,56,602,0.110535,-0.993713,-0.00360107,-0.0174561,-2.03378,0.189072,167.309,-0.0078125,-0.0078125,0.492188,-0.0078125,-0.0078125,0,225,,,,0
2017/01/13,14:14:56,56,618,0.110535,-0.993713,-0.00360107,-0.0174561,-2.03378,0.189072,167.309,-0.0078125,-0.0078125,0.492188,-0.0078125,-0.0078125,0,225,,,,0
2017/01/13,14:14:56,56,669,0.110535,-0.993713,-0.00360107,-0.0174561,-2.03378,0.189072,167.309,-0.0078125,-0.0078125,0.492188,-0.0078125,-0.0078125,0,225,,,,0
2017/01/13,14:14:56,56,685,0.110535,-0.993713,-0.00360107,-0.0174561,-2.03378,0.189072,167.309,-0.0078125,0,0.492188,-0.0078125,-0.0078125,0,225,,,,0
2017/01/13,14:14:56,56,701,0.110535,-0.993713,-0.00366211,-0.0174561,-2.03455,0.196014,167.309,-0.0078125,-0.0078125,0.492188,-0.0078125,-0.0078125,0,225,,,,0
2017/01/13,14:14:56,56,735,0.110535,-0.993713,-0.00366211,-0.0174561,-2.03455,0.196014,167.309,-0.0078125,-0.0078125,0.492188,-0.0078125,-0.0078125,0,225,,,,0
2017/01/13,14:14:56,56,768,0.110535,-0.993713,-0.00366211,-0.0174561,-2.03455,0.196014,167.309,-0.0078125,-0.0078125,0.492188,-0.0078125,-0.0078125,0,225,,,,0
2017/01/13,14:14:56,56,770,0.110535,-0.993713,-0.00366211,-0.0174561,-2.03455,0.196014,167.309,-0.015625,0,0.492188,-0.0078125,-0.0078125,0,225,,,,0
2017/01/13,14:14:56,56,802,0.110474,-0.993774,-0.00360107,-0.0174561,-2.03388,0.189209,167.317,-0.0078125,-0.0078125,0.492188,-0.0078125,-0.0078125,0,225,,,,0
2017/01/13,14:14:56,56,851,0.110474,-0.993774,-0.00366211,-0.0174561,-2.03465,0.196152,167.317,-0.0078125,-0.0078125,0.492188,-0.0078125,-0.0078125,0,225,,,,0
2017/01/13,14:14:56,56,852,0.110474,-0.993774,-0.00366211,-0.0174561,-2.03465,0.196152,167.317,-0.0078125,-0.0078125,0.492188,-0.0078125,-0.0078125,0,225,,,,0
2017/01/13,14:14:56,56,885,0.110474,-0.993774,-0.00360107,-0.0174561,-2.03388,0.189209,167.317,-0.0078125,-0.0078125,0.492188,-0.0078125,-0.0078125,0,225,,,,0
2017/01/13,14:14:56,56,901,0.110474,-0.993774,-0.00360107,-0.0174561,-2.03388,0.189209,167.317,-0.0078125,-0.0078125,0.492188,-0.0078125,-0.0078125,0,225,,,,0
2017/01/13,14:14:56,56,936,0.110474,-0.993774,-0.00366211,-0.0174561,-2.03465,0.196152,167.317,-0.0078125,-0.0078125,0.492188,-0.0078125,-0.0078125,0,225,,,,0
2017/01/13,14:14:56,56,953,0.110474,-0.993774,-0.00366211,-0.0174561,-2.03465,0.196152,167.317,-0.0078125,0,0.492188,-0.0078125,-0.0078125,0,224,,,,0
2017/01/13,14:14:56,56,985,0.110474,-0.993774,-0.00366211,-0.0174561,-2.03465,0.196152,167.317,-0.0078125,-0.0078125,0.492188,-0.0078125,-0.0078125,0,224,,,,0
2017/01/13,14:14:57,57,19,0.110474,-0.993774,-0.00366211,-0.0174561,-2.03465,0.196152,167.317,-0.0078125,-0.0078125,0.492188,-0.0078125,-0.0078125,0,224,,,,0
2017/01/13,14:14:57,57,34,0.110474,-0.993774,-0.00372314,-0.0175171,-2.04238,0.202332,167.317,-0.0078125,0,0.492188,-0.0078125,-0.0078125,0,224,,,,0
2017/01/13,14:14:57,57,51,0.110474,-0.993774,-0.00372314,-0.0175171,-2.04238,0.202332,167.317,-0.0078125,-0.0078125,0.492188,-0.0078125,-0.0078125,0,225,,,,0
2017/01/13,14:14:57,57,102,0.110474,-0.993774,-0.00372314,-0.0175171,-2.04238,0.202332,167.317,-0.015625,-0.0078125,0.492188,-0.0078125,-0.0078125,0,225,,,,0
2017/01/13,14:14:57,57,103,0.110474,-0.993774,-0.00372314,-0.0175171,-2.04238,0.202332,167.317,-0.0078125,-0.0078125,0.492188,-0.0078125,-0.0078125,0,225,,,,0
2017/01/13,14:14:57,57,152,0.110474,-0.993774,-0.00366211,-0.0175171,-2.04161,0.195374,167.317,-0.0078125,-0.0078125,0.492188,-0.0078125,-0.0078125,0,225,,,,0
2017/01/13,14:14:57,57,169,0.110474,-0.993774,-0.00366211,-0.0175171,-2.04161,0.195374,167.317,-0.0078125,-0.0078125,0.484375,-0.0078125,-0.0078125,0,225,,,,0
2017/01/13,14:14:57,57,186,0.110474,-0.993774,-0.00366211,-0.0175171,-2.04161,0.195374,167.317,-0.0078125,-0.0078125,0.492188,-0.0078125,-0.0078125,0,225,,,,0
2017/01/13,14:14:57,57,212,0.110474,-0.993774,-0.00366211,-0.0175171,-2.04161,0.195374,167.317,-0.0078125,-0.0078125,0.492188,-0.0078125,-0.0078125,0,225,,,,0
2017/01/13,14:14:57,57,252,0.110474,-0.993774,-0.00366211,-0.0175781,-2.04856,0.194611,167.317,-0.0078125,-0.0078125,0.492188,-0.0078125,-0.0078125,0,225,,,,0
2017/01/13,14:14:57,57,253,0.110474,-0.993774,-0.00366211,-0.0175781,-2.04856,0.194611,167.317,-0.0078125,-0.0078125,0.484375,-0.0078125,-0.0078125,0,225,,,,0
2017/01/13,14:14:57,57,287,0.110474,-0.993774,-0.00366211,-0.0175781,-2.04856,0.194611,167.317,-0.0078125,-0.0078125,0.492188,-0.0078125,-0.0078125,0,225,,,,0
2017/01/13,14:14:57,57,318,0.110474,-0.993774,-0.00366211,-0.0175781,-2.04856,0.194611,167.317,-0.0078125,-0.0078125,0.492188,-0.0078125,-0.0078125,0,225,,,,0
2017/01/13,14:14:57,57,335,0.110413,-0.993774,-0.00366211,-0.0175781,-2.04854,0.194733,167.324,-0.0078125,0,0.492188,-0.0078125,-0.0078125,0,225,,,,0
2017/01/13,14:14:57,57,352,0.110413,-0.993774,-0.00366211,-0.0175781,-2.04854,0.194733,167.324,-0.0078125,-0.0078125,0.492188,-0.0078125,-0.0078125,0,225,,,,0
2017/01/13,14:14:57,57,401,0.110413,-0.993774,-0.00366211,-0.0175781,-2.04854,0.194733,167.324,-0.0078125,-0.0078125,0.492188,-0.0078125,-0.0078125,0,225,,,,0
2017/01/13,14:14:57,57,419,0.110413,-0.993774,-0.00366211,-0.0175781,-2.04854,0.194733,167.324,-0.0078125,-0.0078125,0.492188,-0.0078125,-0.0078125,0,225,,,,0
2017/01/13,14:14:57,57,435,0.110413,-0.993774,-0.00366211,-0.0175781,-2.04854,0.194733,167.324,-0.0078125,0,0.492188,-0.0078125,-0.0078125,0,225,,,,0
2017/01/13,14:14:57,57,469,0.110413,-0.993774,-0.00366211,-0.0175781,-2.04854,0.194733,167.324,-0.0078125,-0.0078125,0.492188,-0.0078125,-0.0078125,0,225,,,,0
2017/01/13,14:14:57,57,484,0.110413,-0.993774,-0.00366211,-0.0176392,-2.05549,0.193954,167.324,-0.0078125,-0.0078125,0.492188,-0.0078125,-0.0078125,0,225,,,,0
2017/01/13,14:14:57,57,502,0.110413,-0.993774,-0.00366211,-0.0176392,-2.05549,0.193954,167.324,-0.0078125,-0.0078125,0.492188,-0.0078125,-0.0078125,0,225,,,,0
2017/01/13,14:14:57,57,534,0.110413,-0.993774,-0.00366211,-0.0176392,-2.05549,0.193954,167.324,-0.0078125,-0.0078125,0.484375,-0.0078125,-0.0078125,0,225,,,,0
2017/01/13,14:14:57,57,567,0.110413,-0.993774,-0.00366211,-0.0176392,-2.05549,0.193954,167.324,-0.0078125,-0.0078125,0.492188,-0.0078125,-0.0078125,0,225,,,,0
2017/01/13,14:14:57,57,585,0.110413,-0.993774,-0.00366211,-0.0176392,-2.05549,0.193954,167.324,-0.0078125,-0.0078125,0.492188,-0.0078125,-0.0078125,0,225,,,,0
2017/01/13,14:14:57,57,618,0.110413,-0.993774,-0.00366211,-0.0176392,-2.05549,0.193954,167.324,-0.0078125,0,0.492188,-0.0078125,-0.0078125,0,225,,,,0
2017/01/13,14:14:57,57,652,0.110352,-0.993774,-0.00366211,-0.0176392,-2.05546,0.194092,167.331,-0.0078125,-0.0078125,0.492188,-0.0078125,-0.0078125,0,225,,,,0
2017/01/13,14:14:57,57,653,0.110352,-0.993774,-0.00366211,-0.0176392,-2.05546,0.194092,167.331,-0.0078125,-0.0078125,0.492188,-0.0078125,-0.0078125,0,225,,,,0
2017/01/13,14:14:57,57,686,0.110352,-0.993774,-0.00366211,-0.0176392,-2.05546,0.194092,167.331,-0.0078125,-0.0078125,0.492188,-0.0078125,-0.0078125,0,225,,,,0
2017/01/13,14:14:57,57,717,0.110352,-0.993774,-0.00366211,-0.0176392,-2.05546,0.194092,167.331,-0.0078125,0,0.492188,-0.0078125,-0.0078125,0,225,,,,0
2017/01/13,14:14:57,57,735,0.110352,-0.993774,-0.00366211,-0.0176392,-2.05546,0.194092,167.331,-0.0078125,-0.0078125,0.492188,-0.0078125,-0.0078125,0,225,,,,0
2017/01/13,14:14:57,57,786,0.110352,-0.993774,-0.00366211,-0.0176392,-2.05546,0.194092,167.331,-0.0078125,0,0.492188,-0.0078125,-0.0078125,0,225,,,,0
2017/01/13,14:14:57,57,821,0.110352,-0.993774,-0.00366211,-0.0176392,-2.05546,0.194092,167.331,-0.0078125,-0.0078125,0.492188,-0.0078125,-0.0078125,0,225,,,,0
2017/01/13,14:14:57,57,822,0.110352,-0.993774,-0.00366211,-0.0176392,-2.05546,0.194092,167.331,-0.0078125,-0.0078125,0.492188,-0.0078125,-0.0078125,0,225,,,,0
2017/01/13,14:14:57,57,832,0.110352,-0.993774,-0.00366211,-0.0176392,-2.05546,0.194092,167.331,-0.0078125,-0.0078125,0.492188,-0.0078125,-0.0078125,0,225,,,,0
2017/01/13,14:14:57,57,869,0.110352,-0.993774,-0.00366211,-0.0176392,-2.05546,0.194092,167.331,-0.0078125,0,0.492188,-0.0078125,-0.0078125,0,225,,,,0
2017/01/13,14:14:57,57,902,0.110352,-0.993774,-0.00366211,-0.0176392,-2.05546,0.194092,167.331,-0.0078125,-0.0078125,0.492188,-0.0078125,-0.0078125,0,225,,,,0
2017/01/13,14:14:57,57,918,0.110352,-0.993774,-0.00366211,-0.0176392,-2.05546,0.194092,167.331,-0.0078125,0,0.492188,-0.0078125,-0.0078125,0,225,,,,0
2017/01/13,14:14:57,57,953,0.110352,-0.993774,-0.00366211,-0.0176392,-2.05546,0.194092,167.331,-0.0078125,-0.0078125,0.492188,-0.0078125,-0.0078125,0,225,,,,0
2017/01/13,14:14:57,57,954,0.110352,-0.993774,-0.00366211,-0.0176392,-2.05546,0.194092,167.331,-0.0078125,-0.0078125,0.492188,-0.0078125,-0.0078125,0,225,,,,0
2017/01/13,14:14:57,57,983,0.110352,-0.993774,-0.00366211,-0.0176392,-2.05546,0.194092,167.331,-0.0078125,-0.0078125,0.492188,-0.0078125,-0.0078125,0,225,,,,0
2017/01/13,14:14:58,58,20,0.110352,-0.993774,-0.00366211,-0.0176392,-2.05546,0.194092,167.331,-0.0078125,-0.0078125,0.492188,-0.0078125,-0.0078125,0,225,,,,0
2017/01/13,14:14:58,58,35,0.110352,-0.993774,-0.00366211,-0.0175781,-2.04851,0.194855,167.331,-0.0078125,-0.0078125,0.492188,-0.0078125,-0.0078125,0,225,,,,0
2017/01/13,14:14:58,58,65,0.110352,-0.993774,-0.00366211,-0.0175781,-2.04851,0.194855,167.331,-0.0078125,0,0.492188,-0.0078125,-0.0078125,0,225,,,,0
2017/01/13,14:14:58,58,85,0.110352,-0.993774,-0.00372314,-0.0175781,-2.04928,0.201813,167.331,-0.0078125,0,0.492188,-0.0078125,-0.0078125,0,225,,,,0
2017/01/13,14:14:58,58,102,0.110352,-0.993774,-0.00372314,-0.0175781,-2.04928,0.201813,167.331,-0.0078125,-0.0078125,0.492188,-0.0078125,-0.0078125,0,225,,,,0
2017/01/13,14:14:58,58,146,0.110352,-0.993774,-0.00366211,-0.0175781,-2.04851,0.194855,167.331,-0.0078125,-0.0078125,0.492188,-0.0078125,-0.0078125,0,225,,,,0
2017/01/13,14:14:58,58,169,0.110352,-0.993774,-0.00366211,-0.0175781,-2.04851,0.194855,167.331,-0.0078125,-0.0078125,0.492188,-0.0078125,-0.0078125,0,225,,,,0
2017/01/13,14:14:58,58,201,0.110352,-0.993774,-0.00372314,-0.0175781,-2.04928,0.201813,167.331,-0.0078125,-0.0078125,0.492188,-0.0078125,-0.0078125,0,225,,,,0
2017/01/13,14:14:58,58,218,0.110352,-0.993774,-0.00372314,-0.0175781,-2.04928,0.201813,167.331,-0.0078125,-0.0078125,0.492188,-0.0078125,-0.0078125,0,225,,,,0
2017/01/13,14:14:58,58,237,0.110352,-0.993774,-0.00372314,-0.0175781,-2.04928,0.201813,167.331,-0.0078125,0,0.492188,-0.0078125,0,0,225,,,,0
2017/01/13,14:14:58,58,251,0.110352,-0.993774,-0.00372314,-0.0175781,-2.04928,0.201813,167.331,-0.0078125,-0.0078125,0.492188,-0.0078125,-0.0078125,0,225,,,,0
2017/01/13,14:14:58,58,320,0.110352,-0.993774,-0.00372314,-0.0175171,-2.04233,0.202591,167.331,-0.0078125,-0.0078125,0.492188,-0.0078125,-0.0078125,0,225,,,,0
2017/01/13,14:14:58,58,321,0.110352,-0.993774,-0.00372314,-0.0175171,-2.04233,0.202591,167.331,-0.0078125,0,0.492188,-0.0078125,-0.0078125,0,225,,,,0
2017/01/13,14:14:58,58,352,0.110291,-0.993774,-0.00372314,-0.0175171,-2.0423,0.202713,167.338,-0.0078125,-0.0078125,0.492188,-0.0078125,-0.0078125,0,225,,,,0
2017/01/13,14:14:58,58,369,0.110291,-0.993774,-0.00372314,-0.0175171,-2.0423,0.202713,167.338,-0.0078125,-0.0078125,0.492188,-0.0078125,-0.0078125,0,225,,,,0
2017/01/13,14:14:58,58,385,0.110291,-0.993774,-0.00372314,-0.0175171,-2.0423,0.202713,167.338,-0.0078125,-0.0078125,0.492188,-0.0078125,-0.0078125,0,225,,,,0
2017/01/13,14:14:58,58,417,0.110291,-0.993774,-0.00372314,-0.0175171,-2.0423,0.202713,167.338,-0.0078125,-0.0078125,0.492188,-0.0078125,-0.0078125,0,225,,,,0
2017/01/13,14:14:58,58,435,0.110291,-0.993774,-0.00372314,-0.0175781,-2.04926,0.201935,167.338,-0.0078125,-0.0078125,0.492188,-0.0078125,-0.0078125,0,225,,,,0
2017/01/13,14:14:58,58,468,0.110291,-0.993774,-0.00372314,-0.0175781,-2.04926,0.201935,167.338,-0.0078125,-0.0078125,0.492188,-0.0078125,-0.0078125,0,225,,,,0
2017/01/13,14:14:58,58,535,0.110291,-0.993774,-0.00372314,-0.0175171,-2.0423,0.202713,167.338,-0.0078125,-0.0078125,0.492188,-0.0078125,-0.0078125,0,225,,,,0
2017/01/13,14:14:58,58,536,0.110291,-0.993774,-0.00372314,-0.0175171,-2.0423,0.202713,167.338,-0.0078125,-0.0078125,0.492188,-0.0078125,-0.0078125,0,225,,,,0
2017/01/13,14:14:58,58,537,0.110291,-0.993774,-0.00372314,-0.0175171,-2.0423,0.202713,167.338,-0.0078125,-0.0078125,0.492188,-0.0078125,-0.0078125,0,224,,,,0
2017/01/13,14:14:58,58,569,0.110291,-0.993774,-0.00372314,-0.0175171,-2.0423,0.202713,167.338,-0.0078125,-0.0078125,0.492188,-0.0078125,-0.0078125,0,225,,,,0
2017/01/13,14:14:58,58,618,0.110291,-0.993774,-0.00372314,-0.0175171,-2.0423,0.202713,167.338,-0.0078125,-0.0078125,0.492188,-0.0078125,-0.0078125,0,224,,,,0
2017/01/13,14:14:58,58,619,0.110291,-0.993774,-0.00372314,-0.0175171,-2.0423,0.202713,167.338,-0.015625,-0.0078125,0.492188,-0.0078125,-0.0078125,0,224,,,,0
2017/01/13,14:14:58,58,652,0.110291,-0.993774,-0.00372314,-0.0175781,-2.04926,0.201935,167.338,-0.0078125,-0.0078125,0.492188,-0.0078125,-0.0078125,0,224,,,,0
2017/01/13,14:14:58,58,669,0.110291,-0.993774,-0.00372314,-0.0175781,-2.04926,0.201935,167.338,-0.0078125,-0.0078125,0.492188,-0.0078125,-0.0078125,0,224,,,,0
2017/01/13,14:14:58,58,685,0.110291,-0.993774,-0.00372314,-0.0175781,-2.04926,0.201935,167.338,-0.0078125,-0.0078125,0.492188,-0.0078125,-0.0078125,0,224,,,,0
2017/01/13,14:14:58,58,719,0.110291,-0.993774,-0.00372314,-0.0175781,-2.04926,0.201935,167.338,-0.0078125,-0.0078125,0.492188,-0.0078125,-0.0078125,0,224,,,,0
2017/01/13,14:14:58,58,735,0.110291,-0.993774,-0.00372314,-0.0175781,-2.04926,0.201935,167.338,-0.0078125,-0.0078125,0.492188,-0.0078125,-0.0078125,0,225,,,,0
2017/01/13,14:14:58,58,768,0.110291,-0.993774,-0.00372314,-0.0175781,-2.04926,0.201935,167.338,-0.0078125,0,0.492188,-0.0078125,-0.0078125,0,224,,,,0
2017/01/13,14:14:58,58,801,0.110291,-0.993774,-0.00366211,-0.0175781,-2.04848,0.194977,167.338,-0.0078125,-0.0078125,0.492188,-0.0078125,-0.0078125,0,224,,,,0
2017/01/13,14:14:58,58,834,0.110291,-0.993774,-0.00366211,-0.0175781,-2.04848,0.194977,167.338,-0.0078125,-0.0078125,0.492188,-0.0078125,-0.0078125,0,224,,,,0
2017/01/13,14:14:58,58,835,0.110291,-0.993774,-0.00372314,-0.0175171,-2.0423,0.202713,167.338,-0.0078125,0,0.492188,-0.0078125,-0.0078125,0,224,,,,0
2017/01/13,14:14:58,58,868,0.110291,-0.993774,-0.00372314,-0.0175171,-2.0423,0.202713,167.338,-0.015625,-0.0078125,0.492188,-0.0078125,-0.0078125,0,224,,,,0
2017/01/13,14:14:58,58,885,0.110229,-0.993774,-0.00372314,-0.0175171,-2.04227,0.202835,167.345,-0.0078125,-0.0078125,0.492188,-0.0078125,-0.0078125,0,224,,,,0
2017/01/13,14:14:58,58,918,0.110229,-0.993774,-0.00372314,-0.0175171,-2.04227,0.202835,167.345,-0.0078125,-0.0078125,0.492188,-0.0078125,-0.0078125,0,224,,,,0
2017/01/13,14:14:58,58,969,0.110291,-0.993774,-0.00372314,-0.0175171,-2.0423,0.202713,167.338,-0.0078125,-0.0078125,0.492188,-0.0078125,-0.0078125,0,224,,,,0
2017/01/13,14:14:58,58,970,0.110291,-0.993774,-0.00372314,-0.0175171,-2.0423,0.202713,167.338,-0.0078125,0,0.492188,-0.0078125,-0.0078125,0,224,,,,0
2017/01/13,14:14:58,58,984,0.110229,-0.993774,-0.00372314,-0.0175781,-2.04923,0.202072,167.345,-0.0078125,-0.0078125,0.492188,-0.0078125,-0.0078125,0,224,,,,0
2017/01/13,14:14:59,59,19,0.110229,-0.993774,-0.00372314,-0.0175781,-2.04923,0.202072,167.345,-0.0078125,-0.0078125,0.492188,-0.0078125,-0.0078125,0,224,,,,0
2017/01/13,14:14:59,59,43,0.110229,-0.993774,-0.00372314,-0.0175171,-2.04227,0.202835,167.345,-0.0078125,-0.0078125,0.492188,-0.0078125,-0.0078125,0,224,,,,0
2017/01/13,14:14:59,59,64,0.110229,-0.993774,-0.00372314,-0.0175171,-2.04227,0.202835,167.345,-0.0078125,-0.0078125,0.492188,-0.0078125,-0.0078125,0,224,,,,0
2017/01/13,14:14:59,59,102,0.110229,-0.993774,-0.00372314,-0.0175171,-2.04227,0.202835,167.345,-0.0078125,-0.0078125,0.492188,-0.0078125,-0.0078125,0,224,,,,0
2017/01/13,14:14:59,59,121,0.110229,-0.993774,-0.00372314,-0.0175171,-2.04227,0.202835,167.345,-0.0078125,-0.0078125,0.492188,-0.0078125,-0.0078125,0,224,,,,0
2017/01/13,14:14:59,59,132,0.110229,-0.993774,-0.00372314,-0.0175171,-2.04227,0.202835,167.345,-0.0078125,-0.0078125,0.492188,-0.0078125,-0.0078125,0,224,,,,0
2017/01/13,14:14:59,59,169,0.110229,-0.993774,-0.00372314,-0.0175171,-2.04227,0.202835,167.345,-0.0078125,0,0.492188,-0.0078125,-0.0078125,0,225,,,,0
2017/01/13,14:14:59,59,184,0.110229,-0.993774,-0.00366211,-0.0175171,-2.0415,0.195892,167.345,-0.0078125,-0.0078125,0.492188,-0.0078125,-0.0078125,0,224,,,,0
2017/01/13,14:14:59,59,214,0.110229,-0.993774,-0.00366211,-0.0175171,-2.0415,0.195892,167.345,-0.0078125,-0.0078125,0.492188,-0.0078125,-0.0078125,0,224,,,,0
2017/01/13,14:14:59,59,252,0.110229,-0.993774,-0.00372314,-0.0175171,-2.04227,0.202835,167.345,-0.0078125,-0.0078125,0.492188,-0.0078125,0,0,224,,,,0
2017/01/13,14:14:59,59,268,0.110229,-0.993774,-0.00372314,-0.0175171,-2.04227,0.202835,167.345,-0.0078125,-0.0078125,0.492188,-0.0078125,-0.0078125,0,225,,,,0
2017/01/13,14:14:59,59,301,0.110229,-0.993774,-0.00366211,-0.0175171,-2.0415,0.195892,167.345,-0.0078125,-0.0078125,0.492188,-0.0078125,-0.0078125,0,225,,,,0
2017/01/13,14:14:59,59,335,0.110229,-0.993774,-0.00366211,-0.0175171,-2.0415,0.195892,167.345,-0.0078125,-0.0078125,0.492188,-0.0078125,-0.0078125,0,224,,,,0
2017/01/13,14:14:59,59,336,0.110229,-0.993774,-0.00366211,-0.0175781,-2.04846,0.195099,167.345,-0.0078125,-0.0078125,0.492188,-0.0078125,-0.0078125,0,225,,,,0
2017/01/13,14:14:59,59,366,0.110229,-0.993774,-0.00366211,-0.0175781,-2.04846,0.195099,167.345,-0.0078125,-0.0078125,0.492188,-0.0078125,-0.0078125,0,224,,,,0
2017/01/13,14:14:59,59,401,0.110229,-0.993774,-0.00372314,-0.0175781,-2.04923,0.202072,167.345,-0.0078125,-0.0078125,0.492188,-0.0078125,-0.0078125,0,225,,,,0
2017/01/13,14:14:59,59,418,0.110229,-0.993774,-0.00372314,-0.0175781,-2.04923,0.202072,167.345,-0.0078125,-0.0078125,0.492188,-0.0078125,-0.0078125,0,225,,,,0
2017/01/13,14:14:59,59,436,0.110229,-0.993774,-0.00372314,-0.0175781,-2.04923,0.202072,167.345,-0.0078125,-0.0078125,0.492188,-0.0078125,-0.0078125,0,225,,,,0
2017/01/13,14:14:59,59,469,0.110229,-0.993774,-0.00372314,-0.0175781,-2.04923,0.202072,167.345,-0.0078125,-0.0078125,0.492188,-0.0078125,-0.0078125,0,224,,,,0
2017/01/13,14:14:59,59,502,0.110229,-0.993774,-0.00372314,-0.0175781,-2.04923,0.202072,167.345,-0.0078125,0,0.492188,-0.0078125,-0.0078125,0,224,,,,0
2017/01/13,14:14:59,59,519,0.110229,-0.993774,-0.00372314,-0.0175781,-2.04923,0.202072,167.345,-0.0078125,0,0.492188,-0.0078125,-0.0078125,0,225,,,,0
2017/01/13,14:14:59,59,553,0.110229,-0.993774,-0.00366211,-0.0176392,-2.05541,0.194336,167.345,-0.0078125,-0.0078125,0.492188,-0.0078125,-0.0078125,0,225,,,,0
2017/01/13,14:14:59,59,569,0.110229,-0.993774,-0.00366211,-0.0176392,-2.05541,0.194336,167.345,-0.0078125,-0.0078125,0.492188,-0.0078125,-0.0078125,0,224,,,,0
2017/01/13,14:14:59,59,585,0.110229,-0.993774,-0.00366211,-0.0175781,-2.04846,0.195099,167.345,-0.0078125,-0.0078125,0.492188,-0.0078125,-0.0078125,0,224,,,,0
2017/01/13,14:14:59,59,619,0.110229,-0.993774,-0.00366211,-0.0175781,-2.04846,0.195099,167.345,-0.0078125,-0.0078125,0.492188,-0.0078125,-0.0078125,0,224,,,,0
2017/01/13,14:14:59,59,635,0.110229,-0.993774,-0.00366211,-0.0175781,-2.04846,0.195099,167.345,-0.0078125,-0.0078125,0.492188,-0.0078125,-0.0078125,0,224,,,,0
2017/01/13,14:14:59,59,669,0.110229,-0.993774,-0.00366211,-0.0175781,-2.04846,0.195099,167.345,-0.0078125,0,0.492188,-0.0078125,-0.0078125,0,224,,,,0
2017/01/13,14:14:59,59,702,0.110229,-0.993774,-0.00372314,-0.0175781,-2.04923,0.202072,167.345,-0.0078125,-0.0078125,0.492188,-0.0078125,-0.0078125,0,224,,,,0
2017/01/13,14:14:59,59,719,0.110229,-0.993774,-0.00372314,-0.0175781,-2.04923,0.202072,167.345,-0.0078125,0,0.492188,-0.0078125,0,0,224,,,,0
2017/01/13,14:14:59,59,751,0.110229,-0.993774,-0.00366211,-0.0175781,-2.04846,0.195099,167.345,-0.0078125,-0.0078125,0.492188,-0.0078125,-0.0078125,0,224,,,,0
2017/01/13,14:14:59,59,769,0.110229,-0.993774,-0.00366211,-0.0175781,-2.04846,0.195099,167.345,-0.0078125,0,0.492188,-0.0078125,0,0,225,,,,0
2017/01/13,14:14:59,59,785,0.110229,-0.993774,-0.00366211,-0.0175781,-2.04846,0.195099,167.345,-0.0078125,-0.0078125,0.492188,-0.0078125,0,0,225,,,,0
2017/01/13,14:14:59,59,818,0.110229,-0.993774,-0.00366211,-0.0175781,-2.04846,0.195099,167.345,-0.0078125,-0.0078125,0.492188,-0.0078125,-0.0078125,0,225,,,,0
2017/01/13,14:14:59,59,851,0.110229,-0.993774,-0.00366211,-0.0175781,-2.04846,0.195099,167.345,-0.0078125,-0.0078125,0.492188,-0.0078125,-0.0078125,0,225,,,,0
2017/01/13,14:14:59,59,868,0.110229,-0.993774,-0.00366211,-0.0175781,-2.04846,0.195099,167.345,-0.0078125,-0.0078125,0.492188,-0.0078125,-0.0078125,0,225,,,,0
2017/01/13,14:14:59,59,885,0.110168,-0.993774,-0.00366211,-0.0175781,-2.04843,0.195236,167.352,-0.0078125,-0.0078125,0.492188,-0.0078125,-0.0078125,0,225,,,,0
2017/01/13,14:14:59,59,919,0.110168,-0.993774,-0.00366211,-0.0175781,-2.04843,0.195236,167.352,-0.0078125,-0.0078125,0.492188,-0.0078125,-0.0078125,0,225,,,,0
2017/01/13,14:14:59,59,935,0.110168,-0.993774,-0.00372314,-0.0175781,-2.0492,0.202194,167.352,-0.0078125,-0.0078125,0.492188,-0.0078125,-0.0078125,0,225,,,,0
2017/01/13,14:15:00,60,1,0.110168,-0.993774,-0.00372314,-0.0175781,-2.0492,0.202194,167.352,-0.0078125,-0.0078125,0.492188,-0.0078125,-0.0078125,0,225,,,,0
2017/01/13,14:15:00,60,38,0.110168,-0.993774,-0.00372314,-0.0175781,-2.0492,0.202194,167.352,-0.0078125,-0.0078125,0.492188,-0.0078125,-0.0078125,0,225,,,,0
2017/01/13,14:15:00,60,52,0.110168,-0.993774,-0.00372314,-0.0175781,-2.0492,0.202194,167.352,-0.0078125,-0.0078125,0.492188,-0.0078125,0,0,225,,,,0
2017/01/13,14:15:00,60,53,0.110168,-0.993774,-0.00372314,-0.0175781,-2.0492,0.202194,167.352,-0.0078125,-0.0078125,0.492188,-0.0078125,0,0,225,,,,0
2017/01/13,14:15:00,60,68,0.110168,-0.993774,-0.00372314,-0.0175781,-2.0492,0.202194,167.352,-0.0078125,-0.0078125,0.492188,-0.0078125,-0.0078125,0,225,,,,0
2017/01/13,14:15:00,60,84,0.110107,-0.993774,-0.00372314,-0.0175781,-2.04918,0.202316,167.359,-0.0078125,-0.0078125,0.492188,-0.0078125,0,0,225,,,,0
2017/01/13,14:15:00,60,120,0.110107,-0.993774,-0.00372314,-0.0175781,-2.04918,0.202316,167.359,-0.0078125,-0.0078125,0.492188,-0.0078125,0,0,225,,,,0
2017/01/13,14:15:00,60,151,0.110107,-0.993774,-0.00378418,-0.0176392,-2.0569,0.208511,167.359,-0.0078125,-0.0078125,0.492188,-0.0078125,0,0,225,,,,0
2017/01/13,14:15:00,60,185,0.110107,-0.993774,-0.00378418,-0.0176392,-2.0569,0.208511,167.359,-0.0078125,0,0.492188,-0.0078125,0,0,225,,,,0
2017/01/13,14:15:00,60,186,0.110107,-0.993774,-0.00378418,-0.0175781,-2.04995,0.209274,167.359,-0.0078125,-0.0078125,0.492188,-0.0078125,-0.0078125,0,225,,,,0
2017/01/13,14:15:00,60,220,0.110107,-0.993774,-0.00378418,-0.0175781,-2.04995,0.209274,167.359,-0.0078125,-0.0078125,0.492188,-0.0078125,-0.0078125,0,225,,,,0
2017/01/13,14:15:00,60,235,0.110107,-0.993774,-0.00384521,-0.0175781,-2.05072,0.216232,167.359,-0.0078125,-0.0078125,0.492188,-0.0078125,-0.0078125,0,225,,,,0
2017/01/13,14:15:00,60,285,0.110107,-0.993774,-0.00384521,-0.0175781,-2.05072,0.216232,167.359,-0.0078125,-0.0078125,0.492188,-0.0078125,-0.0078125,0,225,,,,0
2017/01/13,14:15:00,60,302,0.110107,-0.993774,-0.00384521,-0.0175781,-2.05072,0.216232,167.359,-0.0078125,0,0.492188,-0.0078125,-0.0078125,0,225,,,,0
2017/01/13,14:15:00,60,318,0.110107,-0.993774,-0.00384521,-0.0175781,-2.05072,0.216232,167.359,-0.0078125,-0.0078125,0.492188,-0.0078125,-0.0078125,0,225,,,,0
2017/01/13,14:15:00,60,352,0.110107,-0.993774,-0.00384521,-0.0175171,-2.04376,0.21701,167.359,-0.0078125,-0.0078125,0.492188,-0.0078125,-0.0078125,0,225,,,,0
2017/01/13,14:15:00,60,369,0.110107,-0.993774,-0.00384521,-0.0175171,-2.04376,0.21701,167.359,-0.0078125,-0.0078125,0.492188,-0.0078125,-0.0078125,0,225,,,,0
2017/01/13,14:15:00,60,384,0.110107,-0.993774,-0.00378418,-0.0175171,-2.04299,0.210037,167.359,-0.0078125,-0.0078125,0.492188,-0.0078125,-0.0078125,0,225,,,,0
2017/01/13,14:15:00,60,436,0.110107,-0.993774,-0.00378418,-0.0175171,-2.04299,0.210037,167.359,-0.0078125,-0.0078125,0.492188,-0.0078125,-0.0078125,0,225,,,,0
2017/01/13,14:15:00,60,452,0.110046,-0.993774,-0.00384521,-0.0175171,-2.04374,0.217133,167.366,-0.0078125,-0.0078125,0.492188,-0.0078125,-0.0078125,0,225,,,,0
2017/01/13,14:15:00,60,468,0.110046,-0.993774,-0.00384521,-0.0175171,-2.04374,0.217133,167.366,-0.0078125,-0.0078125,0.492188,-0.0078125,-0.0078125,0,225,,,,0
2017/01/13,14:15:00,60,502,0.110046,-0.993774,-0.00384521,-0.0175171,-2.04374,0.217133,167.366,-0.0078125,-0.0078125,0.492188,-0.0078125,-0.0078125,0,225,,,,0
2017/01/13,14:15:00,60,518,0.110046,-0.993774,-0.00384521,-0.0175171,-2.04374,0.217133,167.366,-0.0078125,-0.0078125,0.492188,-0.0078125,-0.0078125,0,225,,,,0
2017/01/13,14:15:00,60,552,0.110046,-0.993774,-0.00378418,-0.0175171,-2.04297,0.210175,167.366,-0.0078125,0,0.492188,-0.0078125,-0.0078125,0,224,,,,0
2017/01/13,14:15:00,60,568,0.110046,-0.993774,-0.00378418,-0.0175171,-2.04297,0.210175,167.366,-0.0078125,-0.0078125,0.492188,-0.0078125,-0.0078125,0,224,,,,0
2017/01/13,14:15:00,60,601,0.110046,-0.993774,-0.00378418,-0.0175171,-2.04297,0.210175,167.366,-0.0078125,-0.0078125,0.492188,-0.0078125,-0.0078125,0,224,,,,0
2017/01/13,14:15:00,60,620,0.110046,-0.993774,-0.00378418,-0.0175171,-2.04297,0.210175,167.366,-0.0078125,-0.0078125,0.492188,-0.0078125,-0.0078125,0,224,,,,0
2017/01/13,14:15:00,60,668,0.110046,-0.993774,-0.00378418,-0.0175171,-2.04297,0.210175,167.366,-0.0078125,-0.0078125,0.492188,-0.0078125,0,0,224,,,,0
2017/01/13,14:15:00,60,669,0.110046,-0.993774,-0.00378418,-0.0175171,-2.04297,0.210175,167.366,-0.0078125,-0.0078125,0.492188,-0.0078125,-0.0078125,0,224,,,,0
2017/01/13,14:15:00,60,685,0.109985,-0.993774,-0.00378418,-0.0175171,-2.04294,0.210297,167.373,-0.0078125,-0.0078125,0.492188,-0.0078125,-0.0078125,0,224,,,,0
2017/01/13,14:15:00,60,719,0.109985,-0.993774,-0.00378418,-0.0175171,-2.04294,0.210297,167.373,-0.0078125,-0.0078125,0.492188,-0.0078125,-0.0078125,0,224,,,,0
2017/01/13,14:15:00,60,753,0.109985,-0.993774,-0.00378418,-0.0175171,-2.04294,0.210297,167.373,-0.0078125,-0.0078125,0.484375,-0.0078125,-0.0078125,0,224,,,,0
2017/01/13,14:15:00,60,768,0.109985,-0.993774,-0.00378418,-0.0175171,-2.04294,0.210297,167.373,-0.0078125,-0.0078125,0.492188,-0.0078125,-0.0078125,0,223,,,,0
2017/01/13,14:15:00,60,801,0.109985,-0.993774,-0.00378418,-0.0174561,-2.03599,0.21106,167.373,-0.0078125,0,0.492188,-0.0078125,-0.0078125,0,223,,,,0
2017/01/13,14:15:00,60,816,0.109985,-0.993774,-0.00378418,-0.0174561,-2.03599,0.21106,167.373,-0.0078125,-0.0078125,0.492188,-0.0078125,-0.0078125,0,224,,,,0
2017/01/13,14:15:00,60,868,0.110046,-0.993774,-0.00378418,-0.0175171,-2.04297,0.210175,167.366,-0.0078125,0,0.492188,-0.0078125,0,0,224,,,,0
2017/01/13,14:15:00,60,869,0.110046,-0.993774,-0.00378418,-0.0175171,-2.04297,0.210175,167.366,-0.0078125,-0.0078125,0.492188,-0.0078125,0,0,224,,,,0
2017/01/13,14:15:00,60,901,0.110107,-0.993774,-0.00384521,-0.0177002,-2.06463,0.214676,167.359,-0.0078125,-0.0078125,0.492188,-0.0078125,-0.0078125,0,224,,,,0
2017/01/13,14:15:00,60,918,0.110107,-0.993774,-0.00384521,-0.0177002,-2.06463,0.214676,167.359,-0.0078125,-0.0078125,0.492188,-0.0078125,-0.0078125,0,224,,,,0
2017/01/13,14:15:00,60,932,0.110107,-0.993774,-0.00372314,-0.0180664,-2.10482,0.196152,167.359,-0.0078125,-0.0078125,0.492188,-0.0078125,-0.0078125,0,224,,,,0
2017/01/13,14:15:00,60,968,0.110107,-0.993774,-0.00372314,-0.0180664,-2.10482,0.196152,167.359,-0.0078125,-0.0078125,0.492188,-0.0078125,-0.0078125,0,225,,,,0
2017/01/13,14:15:01,61,1,0.110168,-0.993774,-0.00286865,-0.019043,-2.20534,0.0863342,167.35,-0.0078125,0,0.492188,-0.0078125,-0.0078125,0,224,,,,0
2017/01/13,14:15:01,61,18,0.110168,-0.993774,-0.00286865,-0.019043,-2.20534,0.0863342,167.35,-0.0078125,0,0.5,-0.0078125,-0.0078125,0,224,,,,0
2017/01/13,14:15:01,61,53,0.110657,-0.993652,0.000793457,-0.0212402,-2.40915,-0.359985,167.283,-0.0078125,-0.0078125,0.515625,-0.0078125,-0.015625,-0.0078125,224,,,,0
2017/01/13,14:15:01,61,68,0.110657,-0.993652,0.000793457,-0.0212402,-2.40915,-0.359985,167.283,0,-0.015625,0.507812,-0.015625,-0.0078125,0,224,,,,0
2017/01/13,14:15:01,61,118,0.111206,-0.993347,0.00524902,-0.0296021,-3.30452,-0.976379,167.196,0,-0.015625,0.507812,-0.015625,-0.0078125,0,223,,,,0
2017/01/13,14:15:01,61,164,0.111206,-0.993347,0.00524902,-0.0296021,-3.30452,-0.976379,167.196,0.0078125,-0.0234375,0.507812,-0.0234375,-0.0078125,0,224,,,,0
2017/01/13,14:15:01,61,165,0.111511,-0.992798,0.00689697,-0.0443115,-4.95921,-1.35594,167.124,0,-0.03125,0.507812,-0.0234375,-0.0078125,0,224,,,,0
2017/01/13,14:15:01,61,186,0.111511,-0.992798,0.00689697,-0.0443115,-4.95921,-1.35594,167.124,0,-0.0390625,0.484375,-0.0234375,-0.0078125,0,224,,,,0
2017/01/13,14:15:01,61,202,0.111755,-0.991821,0.0078125,-0.0620728,-6.97198,-1.69542,167.039,0,-0.0546875,0.484375,-0.0234375,-0.0078125,0,224,,,,0
2017/01/13,14:15:01,61,218,0.111755,-0.991821,0.0078125,-0.0620728,-6.97198,-1.69542,167.039,0,-0.0625,0.484375,-0.0234375,-0.0078125,-0.0078125,225,,,,0
2017/01/13,14:15:01,61,252,0.112305,-0.99054,0.00891113,-0.0787964,-8.86462,-2.05031,166.904,0.015625,-0.0703125,0.5,-0.0234375,-0.0078125,-0.0078125,225,,,,0
2017/01/13,14:15:01,61,285,0.112305,-0.99054,0.00891113,-0.0787964,-8.86462,-2.05031,166.904,-0.0078125,-0.0703125,0.53125,-0.0234375,-0.0078125,-0.0078125,227,,,,0
2017/01/13,14:15:01,61,286,0.114197,-0.988708,0.0090332,-0.0968628,-10.9221,-2.33377,166.6,0.015625,-0.0859375,0.546875,-0.03125,-0.0078125,-0.0078125,227,,,,0
2017/01/13,14:15:01,61,335,0.114197,-0.988708,0.0090332,-0.0968628,-10.9221,-2.33377,166.6,0.03125,-0.09375,0.546875,-0.0390625,-0.0078125,-0.0078125,227,,,,0
2017/01/13,14:15:01,61,352,0.117188,-0.985168,0.00817871,-0.125122,-14.1591,-2.68607,166.099,0.0078125,-0.117188,0.5625,-0.046875,-0.0078125,-0.0078125,227,,,,0
2017/01/13,14:15:01,61,368,0.117188,-0.985168,0.00817871,-0.125122,-14.1591,-2.68607,166.099,-0.015625,-0.132812,0.59375,-0.0546875,-0.0078125,-0.0078125,227,,,,0
2017/01/13,14:15:01,61,402,0.119446,-0.979309,0.00549316,-0.163391,-18.5848,-3.01106,165.599,-0.0625,-0.15625,0.585938,-0.0625,-0.0078125,-0.0078125,228,,,,0
2017/01/13,14:15:01,61,419,0.119446,-0.979309,0.00549316,-0.163391,-18.5848,-3.01106,165.599,-0.09375,-0.171875,0.53125,-0.0625,-0.0078125,-0.015625,229,,,,0
2017/01/13,14:15:01,61,469,0.129089,-0.968933,-0.000488281,-0.210999,-24.1428,-3.36285,164.103,0.03125,-0.132812,0.484375,-0.0625,0,-0.0234375,229,,,,0
2017/01/13,14:15:01,61,470,0.129089,-0.968933,-0.000488281,-0.210999,-24.1428,-3.36285,164.103,-0.0390625,0.148438,0.382812,-0.046875,-0.0234375,-0.0234375,230,,,,0
2017/01/13,14:15:01,61,501,0.144409,-0.958496,0.00836182,-0.24585,-27.9614,-5.65442,161.456,-0.21875,0.3125,0.507812,-0.0078125,-0.0078125,-0.0234375,231,,,,0
2017/01/13,14:15:01,61,535,0.144409,-0.958496,0.00836182,-0.24585,-27.9614,-5.65442,161.456,-0.0234375,0.210938,0.382812,0.03125,0.015625,-0.015625,233,,,,0
2017/01/13,14:15:01,61,536,0.157898,-0.965393,0.00152588,-0.207825,-23.6271,-4.2921,160.524,-0.0390625,0.140625,0.367188,0.0390625,0.0078125,0,235,,,,0
2017/01/13,14:15:01,61,569,0.157898,-0.965393,0.00152588,-0.207825,-23.6271,-4.2921,160.524,-0.046875,0.140625,0.414062,0.0390625,0.015625,0.0078125,237,,,,0
2017/01/13,14:15:01,61,603,0.155273,-0.975281,-0.00848389,-0.157227,-18.0179,-1.94498,161.599,-0.015625,0.101562,0.4375,0.046875,0.015625,0.015625,240,,,,0
2017/01/13,14:15:01,61,618,0.155273,-0.975281,-0.00848389,-0.157227,-18.0179,-1.94498,161.599,-0.015625,0.0390625,0.46875,0.046875,0.015625,0.0234375,243,,,,0
2017/01/13,14:15:01,61,651,0.139099,-0.984436,-0.0209961,-0.105408,-12.3202,0.704605,163.991,-0.046875,0,0.5,0.0390625,0.015625,0.03125,246,,,,0
2017/01/13,14:15:01,61,685,0.139099,-0.984436,-0.0209961,-0.105408,-12.3202,0.704605,163.991,-0.0625,-0.0546875,0.539062,0.0390625,0.015625,0.03125,249,,,,0
2017/01/13,14:15:01,61,686,0.112549,-0.991028,-0.0342407,-0.0635376,-7.68013,3.0983,167.25,-0.078125,-0.09375,0.585938,0.03125,0.015625,0.03125,254,,,,0
2017/01/13,14:15:01,61,718,0.112549,-0.991028,-0.0342407,-0.0635376,-7.68013,3.0983,167.25,-0.0859375,-0.117188,0.648438,0.0390625,0.015625,0.03125,259,,,,0
2017/01/13,14:15:01,61,752,0.0843506,-0.994751,-0.0515137,-0.0272827,-3.61027,5.6283,170.484,-0.0234375,-0.140625,0.664062,0.0546875,0.015625,0.03125,264,,,,0
2017/01/13,14:15:01,61,769,0.0843506,-0.994751,-0.0515137,-0.0272827,-3.61027,5.6283,170.484,-0.0390625,-0.242188,0.585938,0.0703125,-0.0078125,0.0390625,269,,,,0
2017/01/13,14:15:01,61,801,0.0551147,-0.996887,-0.0502319,0.0264893,2.70976,5.92241,173.531,-0.09375,-0.304688,0.507812,0.0546875,-0.0078125,0.03125,275,,,,0
2017/01/13,14:15:01,61,836,0.0551147,-0.996887,-0.0502319,0.0264893,2.70976,5.92241,173.531,-0.0859375,-0.320312,0.492188,0.0390625,-0.0078125,0.0234375,281,,,,0
2017/01/13,14:15:01,61,853,0.0302124,-0.996826,-0.0453491,0.0587769,6.57135,5.42686,176.216,-0.0625,-0.398438,0.40625,0.0390625,0,0.015625,285,,,,0
2017/01/13,14:15:01,61,868,0.0302124,-0.996826,-0.0453491,0.0587769,6.57135,5.42686,176.216,-0.03125,-0.445312,0.351562,0.015625,0,0,289,,,,0
2017/01/13,14:15:01,61,899,0.027832,-0.996277,-0.0491333,0.0657349,7.36821,5.87724,176.421,0.015625,-0.414062,0.367188,0.0078125,0.0078125,-0.015625,293,,,,0
2017/01/13,14:15:01,61,915,0.027832,-0.996277,-0.0491333,0.0657349,7.36821,5.87724,176.421,-0.117188,-0.109375,0.0390625,-0.0234375,-0.0234375,-0.015625,296,,,,0
2017/01/13,14:15:01,61,953,0.0401611,-0.997803,-0.0338135,0.041626,4.60886,4.07399,175.226,-0.101562,0.101562,0.234375,-0.0546875,-0.0625,-0.015625,298,STEP,FRONT,HEEL,0.0293826
2017/01/13,14:15:01,61,982,0.0401611,-0.997803,-0.0338135,0.041626,4.60886,4.07399,175.226,-0.046875,-0.03125,0.804688,-0.0859375,-0.015625,-0.015625,300,,,,0
2017/01/13,14:15:01,61,983,0.0496826,-0.998596,-0.00964355,-0.0186768,-2.19263,0.997864,174.323,0,0.0078125,0.492188,-0.015625,-0.0078125,0,300,,,,0
2017/01/13,14:15:02,62,16,0.0496826,-0.998596,-0.00964355,-0.0186768,-2.19263,0.997864,174.323,-0.0234375,0,0.484375,-0.0078125,0,0,300,,,,0
2017/01/13,14:15:02,62,66,0.0490112,-0.998474,-0.0098877,-0.0239258,-2.79415,0.998154,174.404,-0.015625,-0.0078125,0.492188,-0.0078125,-0.0078125,0,301,,,,0
2017/01/13,14:15:02,62,67,0.0490112,-0.998474,-0.0098877,-0.0239258,-2.79415,0.998154,174.404,-0.015625,-0.0078125,0.484375,-0.0078125,-0.0078125,0,301,,,,0
2017/01/13,14:15:02,62,102,0.0491333,-0.998474,-0.00939941,-0.0258789,-3.01529,0.930969,174.39,-0.015625,-0.0078125,0.492188,-0.0078125,-0.0078125,0,301,,,,0
2017/01/13,14:15:02,62,169,0.0491333,-0.998474,-0.00939941,-0.0258789,-3.01529,0.930969,174.39,-0.015625,-0.0078125,0.492188,-0.0078125,-0.0078125,0,301,,,,0
2017/01/13,14:15:02,62,170,0.0491333,-0.998413,-0.00878906,-0.0263672,-3.06761,0.858337,174.388,-0.015625,-0.0078125,0.492188,-0.0078125,0,0,301,,,,0
2017/01/13,14:15:02,62,218,0.0491333,-0.998413,-0.00878906,-0.0263672,-3.06761,0.858337,174.388,-0.015625,-0.0078125,0.492188,-0.0078125,0,0,301,,,,0
2017/01/13,14:15:02,62,219,0.0489502,-0.998474,-0.00964355,-0.0258789,-3.01647,0.959488,174.412,-0.015625,-0.0078125,0.484375,-0.0078125,0,0,301,,,,0
2017/01/13,14:15:02,62,221,0.0489502,-0.998474,-0.00964355,-0.0258789,-3.01647,0.959488,174.412,-0.015625,-0.0078125,0.492188,-0.0078125,0,0,301,,,,0
2017/01/13,14:15:02,62,252,0.0488281,-0.998474,-0.0100708,-0.0250854,-2.92782,1.01321,174.427,-0.015625,-0.0078125,0.492188,-0.0078125,0,0,301,,,,0
2017/01/13,14:15:02,62,298,0.0488281,-0.998474,-0.0100708,-0.0250854,-2.92782,1.01321,174.427,-0.015625,-0.0078125,0.492188,-0.0078125,0,0,301,,,,0
2017/01/13,14:15:02,62,299,0.0487061,-0.998474,-0.0101929,-0.0246582,-2.87941,1.02994,174.44,-0.015625,-0.0078125,0.492188,-0.0078125,0,0,301,,,,0
2017/01/13,14:15:02,62,318,0.0487061,-0.998474,-0.0101929,-0.0246582,-2.87941,1.02994,174.44,-0.015625,-0.0078125,0.492188,-0.0078125,0,0,301,,,,0
2017/01/13,14:15:02,62,366,0.048645,-0.998474,-0.0102539,-0.024231,-2.83074,1.03947,174.447,-0.015625,-0.0078125,0.492188,-0.0078125,0,0,301,,,,0
2017/01/13,14:15:02,62,367,0.048645,-0.998474,-0.0102539,-0.024231,-2.83074,1.03947,174.447,-0.015625,-0.0078125,0.492188,-0.0078125,-0.0078125,0,301,,,,0
2017/01/13,14:15:02,62,402,0.0487061,-0.998535,-0.0102539,-0.0239258,-2.79602,1.04091,174.44,-0.015625,-0.0078125,0.492188,-0.0078125,-0.0078125,0,301,,,,0
2017/01/13,14:15:02,62,452,0.0487061,-0.998535,-0.0102539,-0.0239258,-2.79602,1.04091,174.44,-0.015625,-0.0078125,0.492188,-0.0078125,-0.0078125,0,301,,,,0
2017/01/13,14:15:02,62,453,0.0487671,-0.998535,-0.0100098,-0.0236206,-2.75976,1.01447,174.432,-0.015625,-0.0078125,0.492188,-0.0078125,-0.0078125,0,301,,,,0
2017/01/13,14:15:02,62,468,0.0487671,-0.998535,-0.0100098,-0.0236206,-2.75976,1.01447,174.432,-0.015625,-0.0078125,0.492188,-0.0078125,0,0,301,,,,0
2017/01/13,14:15:02,62,503,0.0488281,-0.998535,-0.0098877,-0.0233765,-2.73118,1.00166,174.425,-0.015625,-0.0078125,0.492188,-0.0078125,0,0,301,,,,0
2017/01/13,14:15:02,62,519,0.0488281,-0.998535,-0.0098877,-0.0233765,-2.73118,1.00166,174.425,-0.015625,-0.0078125,0.492188,-0.0078125,-0.0078125,0,301,,,,0
2017/01/13,14:15:02,62,552,0.0489502,-0.998535,-0.0098877,-0.0231323,-2.70335,1.0027,174.411,-0.015625,-0.0078125,0.492188,-0.0078125,-0.0078125,0,301,,,,0
2017/01/13,14:15:02,62,586,0.0489502,-0.998535,-0.0098877,-0.0231323,-2.70335,1.0027,174.411,-0.015625,-0.0078125,0.492188,-0.0078125,-0.0078125,0,301,,,,0
2017/01/13,14:15:02,62,601,0.0491333,-0.998535,-0.00976562,-0.0228882,-2.67491,0.989578,174.389,-0.015625,-0.0078125,0.492188,-0.0078125,-0.0078125,0,301,,,,0
2017/01/13,14:15:02,62,618,0.0491333,-0.998535,-0.00976562,-0.0228882,-2.67491,0.989578,174.389,-0.015625,-0.0078125,0.492188,-0.0078125,-0.0078125,0,301,,,,0
2017/01/13,14:15:02,62,652,0.0492554,-0.998535,-0.00946045,-0.022522,-2.63137,0.956345,174.374,-0.015625,-0.0078125,0.492188,-0.0078125,-0.0078125,0,301,,,,0
2017/01/13,14:15:02,62,668,0.0492554,-0.998535,-0.00946045,-0.022522,-2.63137,0.956345,174.374,-0.015625,-0.0078125,0.492188,-0.0078125,0,0,301,,,,0
2017/01/13,14:15:02,62,752,0.0493164,-0.998535,-0.00933838,-0.0221558,-2.5888,0.94426,174.366,-0.015625,0,0.492188,-0.0078125,0,0,301,,,,0
2017/01/13,14:15:02,62,753,0.0493164,-0.998535,-0.00933838,-0.0221558,-2.5888,0.94426,174.366,-0.015625,-0.0078125,0.492188,-0.0078125,0,0,301,,,,0
2017/01/13,14:15:02,62,754,0.0493774,-0.998535,-0.00946045,-0.0219116,-2.56159,0.959442,174.36,-0.015625,-0.0078125,0.492188,-0.0078125,0,0,301,,,,0
2017/01/13,14:15:02,62,777,0.0493774,-0.998535,-0.00946045,-0.0219116,-2.56159,0.959442,174.36,-0.015625,-0.0078125,0.492188,-0.0078125,0,0,301,,,,0
2017/01/13,14:15:02,62,804,0.0494995,-0.998535,-0.00970459,-0.0216675,-2.53515,0.988464,174.346,-0.015625,-0.0078125,0.492188,-0.0078125,0,0,301,,,,0
2017/01/13,14:15:02,62,819,0.0494995,-0.998535,-0.00970459,-0.0216675,-2.53515,0.988464,174.346,-0.015625,-0.0078125,0.484375,-0.0078125,0,0,301,,,,0
2017/01/13,14:15:02,62,852,0.0496826,-0.998535,-0.0098877,-0.0217285,-2.54339,1.00861,174.326,-0.015625,-0.0078125,0.492188,-0.0078125,0,0,300,,,,0
2017/01/13,14:15:02,62,886,0.0496826,-0.998535,-0.0098877,-0.0217285,-2.54339,1.00861,174.326,-0.015625,-0.0078125,0.492188,-0.0078125,0,0,300,,,,0
2017/01/13,14:15:02,62,887,0.0498657,-0.998474,-0.0100098,-0.0218506,-2.55812,1.02148,174.305,-0.015625,-0.0078125,0.492188,-0.0078125,0,0,300,,,,0
2017/01/13,14:15:02,62,918,0.0498657,-0.998474,-0.0100098,-0.0218506,-2.55812,1.02148,174.305,-0.015625,-0.0078125,0.492188,-0.0078125,0,0,300,,,,0
2017/01/13,14:15:02,62,970,0.0501099,-0.998474,-0.0102539,-0.0223389,-2.61573,1.04602,174.278,-0.015625,-0.0078125,0.492188,-0.0078125,-0.0078125,0,300,,,,0
2017/01/13,14:15:02,62,971,0.0501099,-0.998474,-0.0102539,-0.0223389,-2.61573,1.04602,174.278,-0.015625,-0.0078125,0.484375,-0.0078125,-0.0078125,-0.0078125,301,,,,0
2017/01/13,14:15:03,63,3,0.0512085,-0.998352,-0.0100708,-0.0239258,-2.79738,1.01299,174.152,-0.015625,-0.0078125,0.585938,-0.0078125,-0.0078125,-0.0078125,301,,,,0
2017/01/13,14:15:03,63,33,0.0512085,-0.998352,-0.0100708,-0.0239258,-2.79738,1.01299,174.152,-0.0234375,-0.015625,0.554688,-0.03125,-0.015625,-0.0078125,301,,,,0
2017/01/13,14:15:03,63,34,0.0542603,-0.997803,-0.00579834,-0.0380859,-4.3951,0.427414,173.791,0.015625,-0.0234375,0.601562,-0.046875,-0.0078125,-0.0078125,301,,,,0
2017/01/13,14:15:03,63,85,0.0542603,-0.997803,-0.00579834,-0.0380859,-4.3951,0.427414,173.791,-0.0234375,-0.0390625,0.59375,-0.0625,-0.0078125,-0.0078125,301,,,,0
2017/01/13,14:15:03,63,119,0.0560913,-0.995361,-0.00305176,-0.0788574,-9.0517,-0.160767,173.537,0,-0.0703125,0.578125,-0.0703125,-0.0078125,-0.0078125,301,,,,0
2017/01/13,14:15:03,63,120,0.0560913,-0.995361,-0.00305176,-0.0788574,-9.0517,-0.160767,173.537,0.0078125,-0.101562,0.554688,-0.078125,-0.0078125,-0.0078125,301,,,,0
2017/01/13,14:15:03,63,151,0.0577393,-0.988953,-0.00317383,-0.136841,-15.7253,-0.566895,173.239,-0.03125,-0.125,0.523438,-0.078125,-0.0078125,-0.0078125,301,,,,0
2017/01/13,14:15:03,63,185,0.0577393,-0.988953,-0.00317383,-0.136841,-15.7253,-0.566895,173.239,-0.015625,-0.15625,0.5625,-0.078125,0,-0.0078125,301,,,,0
2017/01/13,14:15:03,63,186,0.0606079,-0.977722,-0.00665283,-0.200989,-23.1929,-0.707687,172.76,-0.0078125,-0.179688,0.59375,-0.0859375,0,-0.0078125,301,,,,0
2017/01/13,14:15:03,63,236,0.0606079,-0.977722,-0.00665283,-0.200989,-23.1929,-0.707687,172.76,-0.0390625,-0.210938,0.578125,-0.09375,0,-0.0078125,301,,,,0
2017/01/13,14:15:03,63,268,0.0654907,-0.96051,-0.012207,-0.270203,-31.3768,-0.801392,171.974,-0.0390625,-0.242188,0.695312,-0.109375,0,-0.015625,301,,,,0
2017/01/13,14:15:03,63,269,0.0654907,-0.96051,-0.012207,-0.270203,-31.3768,-0.801392,171.974,-0.078125,-0.257812,0.71875,-0.109375,0,-0.015625,301,,,,0
2017/01/13,14:15:03,63,318,0.074585,-0.934265,-0.0230103,-0.348022,-40.8229,-0.675247,170.62,-0.148438,-0.21875,0.6875,-0.117188,0.015625,-0.0234375,301,,,,0
2017/01/13,14:15:03,63,386,0.074585,-0.934265,-0.0230103,-0.348022,-40.8229,-0.675247,170.62,-0.132812,-0.125,0.5,-0.132812,0.0234375,-0.03125,300,,,,0
2017/01/13,14:15:03,63,387,0.0980835,-0.896362,-0.0456543,-0.430054,-51.2536,-0.230331,167.4,-0.1875,0.710938,0.3125,-0.101562,0.0234375,-0.046875,300,LIFT,,TOE,0.0465448
2017/01/13,14:15:03,63,399,0.0980835,-0.896362,-0.0456543,-0.430054,-51.2536,-0.230331,167.4,-0.09375,0.390625,0.546875,-0.0234375,0.03125,-0.046875,300,,,,0
2017/01/13,14:15:03,63,400,0.141113,-0.889282,-0.0565796,-0.431458,-51.5677,-1.94836,161.026,0.0234375,0.046875,0.28125,0.0546875,-0.015625,-0.03125,300,,,,0
2017/01/13,14:15:03,63,401,0.141113,-0.889282,-0.0565796,-0.431458,-51.5677,-1.94836,161.026,-0.09375,0.109375,0.257812,0.0625,-0.015625,-0.0234375,301,,,,0
2017/01/13,14:15:03,63,451,0.158813,-0.911865,-0.0309448,-0.377319,-44.2634,-5.07954,158.174,-0.046875,0.046875,0.3125,0.0703125,0,-0.015625,302,,,,0
2017/01/13,14:15:03,63,485,0.158813,-0.911865,-0.0309448,-0.377319,-44.2634,-5.07954,158.174,0,-0.015625,0.382812,0.078125,0.0078125,-0.0078125,303,,,,0
2017/01/13,14:15:03,63,486,0.169495,-0.93811,-0.024292,-0.301147,-34.9774,-3.95421,158.271,-0.015625,-0.0546875,0.429688,0.0859375,0,0.0078125,306,,,,0
2017/01/13,14:15:03,63,518,0.169495,-0.93811,-0.024292,-0.301147,-34.9774,-3.95421,158.271,-0.078125,-0.0859375,0.476562,0.0859375,0,0.0078125,308,,,,0
2017/01/13,14:15:03,63,554,0.162964,-0.962402,-0.0194702,-0.216553,-25.0347,-2.09373,160.314,-0.078125,-0.125,0.546875,0.0859375,0.015625,0.0078125,310,,,,0
2017/01/13,14:15:03,63,568,0.162964,-0.962402,-0.0194702,-0.216553,-25.0347,-2.09373,160.314,-0.0703125,-0.148438,0.625,0.0859375,0.015625,0.0078125,311,,,,0
2017/01/13,14:15:03,63,602,0.157898,-0.978149,-0.0251465,-0.133057,-15.5595,0.426727,161.719,-0.117188,-0.171875,0.6875,0.0859375,0.0078125,0.0078125,312,,,,0
2017/01/13,14:15:03,63,637,0.157898,-0.978149,-0.0251465,-0.133057,-15.5595,0.426727,161.719,-0.148438,-0.195312,0.742188,0.0859375,0.015625,0.015625,312,,,,0
2017/01/13,14:15:03,63,638,0.146667,-0.987183,-0.0337524,-0.0534058,-6.62342,2.94141,163.269,-0.09375,-0.25,0.75,0.0859375,0.0234375,0.0234375,311,,,,0
2017/01/13,14:15:03,63,668,0.146667,-0.987183,-0.0337524,-0.0534058,-6.62342,2.94141,163.269,-0.046875,-0.257812,0.742188,0.078125,0.0234375,0.03125,310,,,,0
2017/01/13,14:15:03,63,699,0.121582,-0.991089,-0.0514526,0.019043,1.44602,6.1221,165.935,-0.0625,-0.273438,0.703125,0.0703125,0.0234375,0.0390625,307,,,,0
2017/01/13,14:15:03,63,718,0.121582,-0.991089,-0.0514526,0.019043,1.44602,6.1221,165.935,-0.09375,-0.273438,0.671875,0.0546875,0.0234375,0.03125,304,,,,0
2017/01/13,14:15:03,63,753,0.093811,-0.990967,-0.0683594,0.0671997,6.91286,8.57916,168.665,-0.0625,-0.25,0.710938,0.046875,0.03125,0.0234375,301,,,,0
2017/01/13,14:15:03,63,785,0.093811,-0.990967,-0.0683594,0.0671997,6.91286,8.57916,168.665,0.046875,-0.320312,0.625,0.0625,0.0234375,0.015625,297,,,,0
2017/01/13,14:15:03,63,786,0.0762329,-0.987244,-0.0875854,0.109253,11.6753,11.1621,170.024,0,-0.40625,0.46875,0.0546875,0.0078125,0.015625,293,,,,0
2017/01/13,14:15:03,63,819,0.0762329,-0.987244,-0.0875854,0.109253,11.6753,11.1621,170.024,-0.015625,-0.382812,0.4375,0.0234375,0.0078125,0,289,,,,0
2017/01/13,14:15:03,63,855,0.0727539,-0.984619,-0.0927124,0.129028,13.9218,11.9723,170.081,0.0390625,-0.34375,0.414062,0.0078125,0.0078125,-0.0078125,286,,,,0
2017/01/13,14:15:03,63,870,0.0727539,-0.984619,-0.0927124,0.129028,13.9218,11.9723,170.081,0.0546875,-0.289062,0.398438,0,0,-0.0078125,283,,,,0
2017/01/13,14:15:03,63,901,0.0767822,-0.984924,-0.0982056,0.120239,12.8131,12.5511,169.67,0.078125,-0.234375,0.382812,-0.0078125,-0.0078125,0.0078125,281,,,,0
2017/01/13,14:15:03,63,934,0.0767822,-0.984924,-0.0982056,0.120239,12.8131,12.5511,169.67,0.0234375,-0.210938,0.382812,-0.015625,-0.015625,0.0234375,280,,,,0
2017/01/13,14:15:03,63,935,0.0640869,-0.989014,-0.0857544,0.102234,11.0246,10.7283,171.547,-0.0234375,-0.171875,0.390625,-0.015625,-0.015625,0.03125,279,,,,0
2017/01/13,14:15:03,63,968,0.0640869,-0.989014,-0.0857544,0.102234,11.0246,10.7283,171.547,-0.0078125,-0.179688,0.375,-0.0234375,-0.015625,0.0390625,278,,,,0
2017/01/13,14:15:04,64,20,0.0324097,-0.993713,-0.0700073,0.0811768,9.02092,8.40697,175.6,-0.03125,-0.148438,0.367188,-0.0234375,-0.015625,0.03125,277,,,,0
2017/01/13,14:15:04,64,35,0.0324097,-0.993713,-0.0700073,0.0811768,9.02092,8.40697,175.6,0.148438,0.429688,0.1875,-0.0625,-0.0625,0.015625,277,STEP,BACK,HEEL,0.0271185
2017/01/13,14:15:04,64,69,0.00933838,-0.99823,-0.0333862,0.0484009,5.50927,3.89172,178.741,0.101562,0.132812,0.382812,-0.0703125,-0.0859375,-0.0078125,277,,,,0
2017/01/13,14:15:04,64,87,0.00933838,-0.99823,-0.0333862,0.0484009,5.50927,3.89172,178.741,-0.117188,-0.0390625,0.828125,-0.09375,-0.015625,-0.015625,277,,,,0
2017/01/13,14:15:04,64,88,0.0217896,-0.999329,-0.00335693,-0.0296631,-3.40725,0.310898,177.511,0,-0.0078125,0.492188,-0.0078125,-0.0078125,0,277,,,,0
2017/01/13,14:15:04,64,119,0.0217896,-0.999329,-0.00335693,-0.0296631,-3.40725,0.310898,177.511,-0.0078125,0,0.492188,-0.0078125,0,0,277,,,,0
2017/01/13,14:15:04,64,150,0.0215454,-0.999268,-0.00305176,-0.0330811,-3.79835,0.268341,177.539,-0.0078125,0,0.492188,-0.0078125,0,0,278,,,,0
2017/01/13,14:15:04,64,168,0.0215454,-0.999268,-0.00305176,-0.0330811,-3.79835,0.268341,177.539,-0.0078125,0,0.492188,-0.0078125,0,0,278,,,,0
2017/01/13,14:15:04,64,203,0.0213013,-0.999268,-0.0032959,-0.032959,-3.78485,0.297577,177.567,-0.015625,0,0.492188,-0.0078125,0,0,279,,,,0
2017/01/13,14:15:04,64,235,0.0213013,-0.999268,-0.0032959,-0.032959,-3.78485,0.297577,177.567,-0.0078125,0,0.492188,-0.0078125,0,0,280,,,,0
2017/01/13,14:15:04,64,236,0.0211792,-0.999268,-0.00341797,-0.0324097,-3.72207,0.313385,177.582,-0.0078125,0,0.492188,-0.0078125,0,0,281,,,,0
2017/01/13,14:15:04,64,268,0.0211792,-0.999268,-0.00341797,-0.0324097,-3.72207,0.313385,177.582,-0.015625,0,0.492188,-0.0078125,0,0,281,,,,0
2017/01/13,14:15:04,64,303,0.0210571,-0.999268,-0.00360107,-0.0319214,-3.66643,0.336014,177.596,-0.015625,-0.0078125,0.484375,-0.0078125,0,0,281,,,,0
2017/01/13,14:15:04,64,318,0.0210571,-0.999268,-0.00360107,-0.0319214,-3.66643,0.336014,177.596,-0.0078125,0,0.492188,-0.0078125,0,0,281,,,,0
2017/01/13,14:15:04,64,386,0.0209961,-0.999329,-0.00415039,-0.0316162,-3.63294,0.399963,177.605,-0.0078125,0,0.492188,-0.0078125,0,0,281,,,,0
2017/01/13,14:15:04,64,486,0.0209961,-0.999329,-0.00415039,-0.0316162,-3.63294,0.399963,177.605,-0.0078125,-0.0078125,0.492188,-0.0078125,0,0,282,,,,0
2017/01/13,14:15:04,64,487,0.020874,-0.999329,-0.00476074,-0.03125,-3.59232,0.471314,177.622,-0.015625,0,0.492188,-0.0078125,0,0,281,,,,0
2017/01/13,14:15:04,64,503,0.020874,-0.999329,-0.00476074,-0.03125,-3.59232,0.471314,177.622,-0.015625,0,0.492188,-0.0078125,0,0,282,,,,0
2017/01/13,14:15:04,64,504,0.020813,-0.999329,-0.00579834,-0.0310059,-3.56676,0.591141,177.632,-0.015625,-0.0078125,0.492188,-0.0078125,0,0,282,,,,0
2017/01/13,14:15:04,64,505,0.020813,-0.999329,-0.00579834,-0.0310059,-3.56676,0.591141,177.632,-0.015625,-0.0078125,0.492188,-0.0078125,0,0,282,,,,0
2017/01/13,14:15:04,64,503,0.020752,-0.999329,-0.00701904,-0.0307007,-3.53461,0.732132,177.643,-0.015625,0,0.492188,-0.0078125,0,0,282,,,,0
2017/01/13,14:15:04,64,622,0.020752,-0.999329,-0.00701904,-0.0307007,-3.53461,0.732132,177.643,-0.015625,0,0.492188,-0.0078125,0,0,282,,,,0
2017/01/13,14:15:04,64,623,0.0206909,-0.999329,-0.00769043,-0.0304565,-3.50815,0.809952,177.653,-0.015625,0,0.492188,-0.0078125,0,0,282,,,,0
2017/01/13,14:15:04,64,624,0.0206909,-0.999329,-0.00769043,-0.0304565,-3.50815,0.809952,177.653,-0.015625,-0.0078125,0.492188,-0.0078125,0,0,282,,,,0
2017/01/13,14:15:04,64,632,0.0206909,-0.999329,-0.00799561,-0.0302124,-3.48086,0.84552,177.653,-0.015625,0,0.492188,-0.0078125,0,0,282,,,,0
2017/01/13,14:15:04,64,634,0.0206909,-0.999329,-0.00799561,-0.0302124,-3.48086,0.84552,177.653,-0.015625,0,0.492188,-0.0078125,0,0,281,,,,0
2017/01/13,14:15:04,64,651,0.020813,-0.999329,-0.00817871,-0.0297852,-3.43239,0.867081,177.64,-0.015625,-0.0078125,0.492188,-0.0078125,0,0,281,,,,0
2017/01/13,14:15:04,64,686,0.020813,-0.999329,-0.00817871,-0.0297852,-3.43239,0.867081,177.64,-0.015625,-0.0078125,0.492188,-0.0078125,0,0,281,,,,0
2017/01/13,14:15:04,64,752,0.0209351,-0.999329,-0.00823975,-0.0294189,-3.39065,0.874527,177.626,-0.015625,-0.0078125,0.492188,-0.0078125,-0.0078125,0,281,,,,0
2017/01/13,14:15:04,64,753,0.0209351,-0.999329,-0.00823975,-0.0294189,-3.39065,0.874527,177.626,-0.015625,-0.0078125,0.492188,-0.0078125,-0.0078125,0,281,,,,0
2017/01/13,14:15:04,64,754,0.0210571,-0.999329,-0.00823975,-0.0291138,-3.35575,0.874847,177.611,-0.015625,0,0.492188,-0.0078125,-0.0078125,0,282,,,,0
2017/01/13,14:15:04,64,785,0.0210571,-0.999329,-0.00823975,-0.0291138,-3.35575,0.874847,177.611,-0.015625,-0.0078125,0.492188,-0.0078125,0,0,281,,,,0
2017/01/13,14:15:04,64,818,0.0211182,-0.999329,-0.00830078,-0.0288086,-3.32095,0.882355,177.604,-0.015625,-0.0078125,0.492188,-0.0078125,0,0,282,,,,0
2017/01/13,14:15:04,64,837,0.0211182,-0.999329,-0.00830078,-0.0288086,-3.32095,0.882355,177.604,-0.015625,-0.0078125,0.492188,-0.0078125,-0.0078125,0,282,,,,0
2017/01/13,14:15:04,64,851,0.0212402,-0.99939,-0.00830078,-0.0285034,-3.28626,0.882629,177.59,-0.015625,-0.0078125,0.492188,-0.0078125,0,0,282,,,,0
2017/01/13,14:15:04,64,868,0.0212402,-0.99939,-0.00830078,-0.0285034,-3.28626,0.882629,177.59,-0.015625,-0.0078125,0.492188,-0.0078125,0,0,282,,,,0
2017/01/13,14:15:04,64,903,0.0213013,-0.99939,-0.00836182,-0.0281982,-3.25146,0.890167,177.583,-0.015625,-0.0078125,0.492188,-0.0078125,0,0,282,,,,0
2017/01/13,14:15:04,64,949,0.0213013,-0.99939,-0.00836182,-0.0281982,-3.25146,0.890167,177.583,-0.015625,-0.0078125,0.492188,-0.0078125,0,0,282,,,,0
2017/01/13,14:15:04,64,950,0.0214233,-0.99939,-0.00848389,-0.0280151,-3.23088,0.904205,177.569,-0.015625,-0.0078125,0.492188,-0.0078125,0,0,282,,,,0
2017/01/13,14:15:05,65,2,0.0214233,-0.99939,-0.00848389,-0.0280151,-3.23088,0.904205,177.569,-0.015625,-0.0078125,0.492188,-0.0078125,0,0,282,,,,0
2017/01/13,14:15:05,65,4,0.0216064,-0.99939,-0.00860596,-0.027771,-3.20336,0.918198,177.549,-0.015625,-0.0078125,0.492188,-0.0078125,0,0,282,,,,0
2017/01/13,14:15:05,65,19,0.0216064,-0.99939,-0.00860596,-0.027771,-3.20336,0.918198,177.549,-0.015625,-0.0078125,0.492188,-0.0078125,0,0,282,,,,0
2017/01/13,14:15:05,65,52,0.0220337,-0.99939,-0.0090332,-0.0276489,-3.19086,0.966125,177.501,-0.015625,0,0.5,-0.0078125,0,-0.0078125,282,,,,0
2017/01/13,14:15:05,65,85,0.0220337,-0.99939,-0.0090332,-0.0276489,-3.19086,0.966125,177.501,-0.0234375,-0.0078125,0.484375,-0.0078125,0,-0.0078125,281,,,,0
2017/01/13,14:15:05,65,102,0.0230713,-0.999268,-0.010376,-0.0289307,-3.34211,1.11359,177.387,-0.0234375,-0.0078125,0.515625,-0.015625,0,-0.0078125,282,,,,0
2017/01/13,14:15:05,65,131,0.0230713,-0.999268,-0.010376,-0.0289307,-3.34211,1.11359,177.387,-0.0234375,-0.015625,0.515625,-0.0234375,0.0078125,-0.0078125,282,,,,0
2017/01/13,14:15:05,65,154,0.0248413,-0.998901,-0.015564,-0.0379028,-4.38716,1.67863,177.215,-0.0546875,-0.015625,0.570312,-0.0390625,0.0078125,-0.0078125,282,,,,0
2017/01/13,14:15:05,65,169,0.0248413,-0.998901,-0.015564,-0.0379028,-4.38716,1.67863,177.215,-0.03125,-0.03125,0.59375,-0.0546875,0.0078125,-0.0078125,282,,,,0
2017/01/13,14:15:05,65,202,0.0280151,-0.996887,-0.0269165,-0.069519,-8.05441,2.88087,176.983,-0.03125,-0.0625,0.609375,-0.0625,0,-0.0078125,282,,,,0
2017/01/13,14:15:05,65,235,0.0280151,-0.996887,-0.0269165,-0.069519,-8.05441,2.88087,176.983,-0.046875,-0.078125,0.617188,-0.078125,0,-0.0078125,283,,,,0
2017/01/13,14:15:05,65,285,0.0306396,-0.991638,-0.0328369,-0.12146,-14.0578,3.40854,176.881,-0.0625,-0.117188,0.609375,-0.09375,-0.0078125,-0.0078125,283,,,,0
2017/01/13,14:15:05,65,286,0.0306396,-0.991638,-0.0328369,-0.12146,-14.0578,3.40854,176.881,-0.046875,-0.164062,0.65625,-0.101562,-0.0078125,-0.015625,284,,,,0
2017/01/13,14:15:05,65,302,0.0334473,-0.979614,-0.0328979,-0.195374,-22.6426,3.19162,176.728,-0.0390625,-0.171875,0.695312,-0.109375,-0.0078125,-0.015625,286,,,,0
2017/01/13,14:15:05,65,318,0.0334473,-0.979614,-0.0328979,-0.195374,-22.6426,3.19162,176.728,-0.0546875,-0.210938,0.6875,-0.125,-0.0078125,-0.015625,287,,,,0
2017/01/13,14:15:05,65,355,0.0372925,-0.957764,-0.0299683,-0.283691,-33.0694,2.47865,176.276,-0.101562,-0.25,0.765625,-0.125,-0.0078125,-0.015625,289,,,,0
2017/01/13,14:15:05,65,385,0.0426636,-0.925903,-0.0313721,-0.374146,-44.0688,2.08702,175.568,-0.125,-0.171875,0.65625,-0.125,0,-0.015625,291,,,,0
2017/01/13,14:15:05,65,403,0.0426636,-0.925903,-0.0313721,-0.374146,-44.0688,2.08702,175.568,-0.148438,-0.117188,0.46875,-0.140625,0.0078125,-0.0234375,293,,,,0
2017/01/13,14:15:05,65,435,0.0622559,-0.878174,-0.0457764,-0.472107,-56.6037,2.25037,173.102,-0.15625,-0.117188,0.375,-0.148438,0.0234375,-0.03125,295,,,,0
2017/01/13,14:15:05,65,468,0.0622559,-0.878174,-0.0457764,-0.472107,-56.6037,2.25037,173.102,-0.179688,0.390625,0.0703125,-0.148438,0.046875,-0.046875,298,,,,0
2017/01/13,14:15:05,65,469,0.0622559,-0.878174,-0.0457764,-0.472107,-56.6037,2.25037,173.102,-0.195312,0.546875,0.382812,-0.09375,0.0625,-0.046875,300,STEP,CENTER,TOE,0.052141
2017/01/13,14:15:05,65,503,0.114502,-0.83667,-0.0803223,-0.529602,-64.7692,1.76398,165.533,0.203125,0.0546875,0.28125,0.101562,0.03125,-0.0078125,303,,,,0
2017/01/13,14:15:05,65,535,0.13031,-0.883667,-0.0756836,-0.443359,-53.4453,1.75136,164.104,0.117188,-0.1875,0.242188,0.109375,-0.03125,0.0234375,305,,,,0
2017/01/13,14:15:05,65,552,0.13031,-0.883667,-0.0756836,-0.443359,-53.4453,1.75136,164.104,-0.03125,-0.171875,0.210938,0.078125,-0.046875,0.0234375,307,,,,0
2017/01/13,14:15:05,65,586,0.101135,-0.917908,-0.050415,-0.380432,-45.1212,1.26691,167.951,-0.125,-0.09375,0.304688,0.0625,-0.0234375,0.015625,308,,,,0
2017/01/13,14:15:05,65,602,0.101135,-0.917908,-0.050415,-0.380432,-45.1212,1.26691,167.951,0.0078125,-0.0390625,0.390625,0.0703125,0.0078125,0.0078125,309,,,,0
2017/01/13,14:15:05,65,618,0.0976562,-0.945374,-0.050415,-0.306946,-36.1715,2.51125,169.025,0.046875,-0.0546875,0.445312,0.0859375,-0.0078125,0.0078125,308,,,,0
2017/01/13,14:15:05,65,668,0.0976562,-0.945374,-0.050415,-0.306946,-36.1715,2.51125,169.025,-0.0625,-0.0859375,0.492188,0.09375,-0.0234375,0.0078125,307,,,,0
2017/01/13,14:15:05,65,739,0.0903931,-0.971252,-0.0333252,-0.217773,-25.4073,1.60899,169.728,-0.101562,-0.132812,0.53125,0.101562,-0.015625,0.0078125,306,,,,0
2017/01/13,14:15:05,65,750,0.0903931,-0.971252,-0.0333252,-0.217773,-25.4073,1.60899,169.728,-0.09375,-0.179688,0.570312,0.09375,-0.0078125,0.0078125,303,,,,0
2017/01/13,14:15:05,65,751,0.0822144,-0.987488,-0.0256958,-0.132263,-15.3932,1.72362,170.714,-0.140625,-0.203125,0.640625,0.0859375,-0.0078125,0.015625,300,,,,0
2017/01/13,14:15:05,65,752,0.0822144,-0.987488,-0.0256958,-0.132263,-15.3932,1.72362,170.714,-0.195312,-0.234375,0.726562,0.0859375,0,0.0234375,296,,,,0
2017/01/13,14:15:05,65,785,0.0617065,-0.996155,-0.0327759,-0.0539551,-6.40411,3.38254,173.1,-0.164062,-0.296875,0.773438,0.09375,0.0078125,0.03125,291,,,,0
2017/01/13,14:15:05,65,802,0.0617065,-0.996155,-0.0327759,-0.0539551,-6.40411,3.38254,173.1,-0.125,-0.320312,0.765625,0.09375,0.015625,0.03125,285,,,,0
2017/01/13,14:15:05,65,835,0.0385742,-0.997986,-0.0474854,0.0180664,1.85651,5.5215,175.483,-0.109375,-0.34375,0.710938,0.0859375,0.015625,0.0234375,280,,,,0
2017/01/13,14:15:05,65,869,0.0385742,-0.997986,-0.0474854,0.0180664,1.85651,5.5215,175.483,-0.09375,-0.335938,0.648438,0.0703125,0.015625,0.0078125,274,,,,0
2017/01/13,14:15:05,65,870,0.0335693,-0.995239,-0.0615234,0.0684204,7.58858,7.36357,175.647,-0.0625,-0.304688,0.59375,0.0546875,0.015625,-0.0078125,269,,,,0
2017/01/13,14:15:05,65,899,0.0335693,-0.995239,-0.0615234,0.0684204,7.58858,7.36357,175.647,-0.0234375,-0.3125,0.5625,0.046875,0.0234375,-0.0234375,264,,,,0
2017/01/13,14:15:05,65,952,0.0512695,-0.990662,-0.0796509,0.0983887,10.7645,9.8401,173.146,0.03125,-0.296875,0.484375,0.0390625,0.0234375,-0.03125,260,,,,0
2017/01/13,14:15:05,65,953,0.0512695,-0.990662,-0.0796509,0.0983887,10.7645,9.8401,173.146,0.0625,-0.273438,0.429688,0.03125,0.015625,-0.03125,256,,,,0
2017/01/13,14:15:05,65,985,0.074646,-0.986816,-0.0916138,0.110657,11.813,11.6304,170.141,0.0546875,-0.234375,0.40625,0.015625,0.0078125,-0.0234375,255,,,,0
2017/01/13,14:15:06,66,20,0.074646,-0.986816,-0.0916138,0.110657,11.813,11.6304,170.141,0.0234375,-0.164062,0.40625,0.0078125,-0.0078125,-0.0078125,255,,,,0
2017/01/13,14:15:06,66,35,0.0821533,-0.986572,-0.0859375,0.112366,11.9814,11.0812,169.313,-0.0078125,-0.132812,0.382812,0.0078125,-0.015625,0.0078125,255,,,,0
2017/01/13,14:15:06,66,52,0.0821533,-0.986572,-0.0859375,0.112366,11.9814,11.0812,169.313,-0.0078125,-0.140625,0.367188,0,-0.015625,0.0234375,257,,,,0
2017/01/13,14:15:06,66,85,0.0592041,-0.989685,-0.069519,0.110596,12.1621,8.86761,172.207,-0.0234375,-0.164062,0.375,0,-0.015625,0.0390625,258,,,,0
2017/01/13,14:15:06,66,104,0.0592041,-0.989685,-0.069519,0.110596,12.1621,8.86761,172.207,0.0234375,-0.210938,0.390625,-0.0078125,-0.015625,0.046875,259,,,,0
2017/01/13,14:15:06,66,136,0.0183105,-0.993835,-0.050415,0.0970459,11.014,6.06802,177.303,0.0234375,-0.265625,0.367188,-0.015625,-0.0234375,0.046875,260,,,,0
2017/01/13,14:15:06,66,168,0.0183105,-0.993835,-0.050415,0.0970459,11.014,6.06802,177.303,-0.015625,-0.265625,0.382812,-0.03125,-0.0234375,0.03125,261,,,,0
2017/01/13,14:15:06,66,203,-0.00732422,-0.997742,-0.0248413,0.0626221,7.19954,2.81067,-179.336,-0.125,0.617188,0.320312,-0.078125,-0.046875,0.0078125,261,STEP,BACK,HEEL,0.0344741
2017/01/13,14:15:06,66,204,-0.00732422,-0.997742,-0.0248413,0.0626221,7.19954,2.81067,-179.336,0.109375,0.09375,0.414062,-0.101562,-0.0390625,0,261,,,,0
2017/01/13,14:15:06,66,235,-0.00445557,-0.999512,0.00299072,-0.0313721,-3.59711,-0.327164,-179.499,0.0078125,-0.046875,0.75,-0.0859375,-0.0390625,-0.0078125,260,,,,0
2017/01/13,14:15:06,66,268,-0.00445557,-0.999512,0.00299072,-0.0313721,-3.59711,-0.327164,-179.499,-0.015625,0.0078125,0.484375,-0.0078125,-0.0078125,0,258,,,,0
2017/01/13,14:15:06,66,285,-0.00476074,-0.999451,0.00408936,-0.0343018,-3.93385,-0.450653,-179.47,0,-0.0078125,0.492188,-0.0078125,-0.0078125,0,257,,,,0
2017/01/13,14:15:06,66,315,-0.00476074,-0.999451,0.00408936,-0.0343018,-3.93385,-0.450653,-179.47,-0.0078125,0,0.492188,-0.0078125,-0.0078125,0,256,,,,0
2017/01/13,14:15:06,66,336,-0.00494385,-0.99939,0.00439453,-0.0344238,-3.94789,-0.484924,-179.45,-0.0078125,0,0.492188,-0.0078125,-0.0078125,0,255,,,,0
2017/01/13,14:15:06,66,352,-0.00494385,-0.99939,0.00439453,-0.0344238,-3.94789,-0.484924,-179.45,-0.0078125,0,0.492188,-0.0078125,-0.0078125,0,254,,,,0
2017/01/13,14:15:06,66,385,-0.00494385,-0.999451,0.0045166,-0.0338745,-3.88514,-0.499207,-179.45,0,0,0.492188,-0.0078125,-0.0078125,0,253,,,,0
2017/01/13,14:15:06,66,418,-0.00494385,-0.999451,0.0045166,-0.0338745,-3.88514,-0.499207,-179.45,0,0,0.492188,-0.0078125,-0.0078125,0,253,,,,0
2017/01/13,14:15:06,66,435,-0.00500488,-0.999451,0.00457764,-0.0333862,-3.82915,-0.506226,-179.443,0,0,0.492188,-0.0078125,0,0,253,,,,0
2017/01/13,14:15:06,66,470,-0.00500488,-0.999451,0.00457764,-0.0333862,-3.82915,-0.506226,-179.443,-0.0078125,0,0.492188,-0.0078125,0,0,253,,,,0
2017/01/13,14:15:06,66,486,-0.00512695,-0.999451,0.0043335,-0.0328369,-3.76602,-0.478043,-179.428,-0.0078125,0,0.492188,-0.0078125,0,0,253,,,,0
2017/01/13,14:15:06,66,502,-0.00512695,-0.999451,0.0043335,-0.0328369,-3.76602,-0.478043,-179.428,-0.0078125,0,0.492188,-0.0078125,0,0,253,,,,0
2017/01/13,14:15:06,66,535,-0.00524902,-0.999512,0.00408936,-0.0322876,-3.70312,-0.449844,-179.413,-0.0078125,0,0.492188,-0.0078125,0,0,253,,,,0
2017/01/13,14:15:06,66,568,-0.00524902,-0.999512,0.00408936,-0.0322876,-3.70312,-0.449844,-179.413,-0.0078125,0,0.492188,-0.0078125,-0.0078125,0,254,,,,0
2017/01/13,14:15:06,66,585,-0.00531006,-0.999512,0.00408936,-0.0316772,-3.6331,-0.449982,-179.405,-0.0078125,0,0.492188,-0.0078125,-0.0078125,0,254,,,,0
2017/01/13,14:15:06,66,620,-0.00531006,-0.999512,0.00408936,-0.0316772,-3.6331,-0.449982,-179.405,-0.0078125,0,0.492188,-0.0078125,0,0,254,,,,0
2017/01/13,14:15:06,66,635,-0.00537109,-0.999512,0.00396729,-0.0310669,-3.563,-0.436096,-179.398,-0.0078125,0,0.492188,-0.0078125,0,0,253,,,,0
2017/01/13,14:15:06,66,652,-0.00537109,-0.999512,0.00396729,-0.0310669,-3.563,-0.436096,-179.398,-0.0078125,0,0.492188,-0.0078125,0,0,253,,,,0
2017/01/13,14:15:06,66,685,-0.00537109,-0.999573,0.00354004,-0.0305786,-3.50692,-0.387344,-179.396,-0.0078125,0,0.492188,-0.0078125,0,0,253,,,,0
2017/01/13,14:15:06,66,735,-0.00537109,-0.999573,0.00354004,-0.0305786,-3.50692,-0.387344,-179.396,-0.0078125,0,0.492188,-0.0078125,0,0,253,,,,0
2017/01/13,14:15:06,66,806,-0.00531006,-0.999573,0.00274658,-0.0302124,-3.46439,-0.296722,-179.4,-0.0078125,0,0.492188,-0.0078125,0,0,253,,,,0
2017/01/13,14:15:06,66,816,-0.00531006,-0.999573,0.00274658,-0.0302124,-3.46439,-0.296722,-179.4,-0.0078125,0,0.492188,-0.0078125,0,0,253,,,,0
2017/01/13,14:15:06,66,817,-0.00518799,-0.999573,0.00201416,-0.0298462,-3.42189,-0.213333,-179.412,-0.0078125,0,0.492188,-0.0078125,0,0,253,,,,0
2017/01/13,14:15:06,66,818,-0.00518799,-0.999573,0.00201416,-0.0298462,-3.42189,-0.213333,-179.412,-0.0078125,0,0.492188,-0.0078125,0,0,253,,,,0
2017/01/13,14:15:06,66,831,-0.00506592,-0.999573,0.00152588,-0.0294189,-3.37256,-0.157959,-179.424,-0.0078125,0,0.492188,-0.0078125,0,0,253,,,,0
2017/01/13,14:15:06,66,870,-0.00506592,-0.999573,0.00152588,-0.0294189,-3.37256,-0.157959,-179.424,-0.0078125,0,0.492188,-0.0078125,0,0,253,,,,0
2017/01/13,14:15:06,66,885,-0.00488281,-0.999573,0.0010376,-0.0289917,-3.32323,-0.102798,-179.443,-0.0078125,0,0.492188,-0.0078125,0,0,254,,,,0
2017/01/13,14:15:06,66,919,-0.00488281,-0.999573,0.0010376,-0.0289917,-3.32323,-0.102798,-179.443,-0.0078125,0,0.492188,-0.0078125,0,0,254,,,,0
2017/01/13,14:15:06,66,949,-0.00463867,-0.999634,0.000732422,-0.0285645,-3.27422,-0.0688171,-179.47,-0.0078125,0,0.492188,-0.0078125,0,0,253,,,,0
2017/01/13,14:15:06,66,950,-0.00463867,-0.999634,0.000732422,-0.0285645,-3.27422,-0.0688171,-179.47,-0.0078125,0,0.492188,-0.0078125,0,0,253,,,,0
2017/01/13,14:15:06,66,984,-0.00445557,-0.999634,0.000610352,-0.0280762,-3.21812,-0.0556641,-179.491,-0.0078125,0,0.492188,-0.0078125,0,0,253,,,,0
2017/01/13,14:15:07,67,18,-0.00445557,-0.999634,0.000610352,-0.0280762,-3.21812,-0.0556641,-179.491,-0.0078125,0,0.492188,-0.0078125,0,0,253,,,,0
2017/01/13,14:15:07,67,33,-0.00427246,-0.999634,0.000305176,-0.02771,-3.17594,-0.0214233,-179.511,-0.0078125,0,0.492188,-0.0078125,0,0,253,,,,0
2017/01/13,14:15:07,67,68,-0.00427246,-0.999634,0.000305176,-0.02771,-3.17594,-0.0214233,-179.511,-0.0078125,0,0.492188,-0.0078125,0,0,253,,,,0
2017/01/13,14:15:07,67,102,-0.00396729,-0.999634,-0.00012207,-0.0273438,-3.13372,0.0264587,-179.544,-0.0078125,0,0.492188,-0.0078125,0,0,254,,,,0
2017/01/13,14:15:07,67,103,-0.00396729,-0.999634,-0.00012207,-0.0273438,-3.13372,0.0264587,-179.544,-0.0078125,0,0.5,-0.0078125,0,0,253,,,,0
2017/01/13,14:15:07,67,136,-0.00354004,-0.999634,-0.000549316,-0.0272217,-3.11955,0.0740814,-179.592,-0.0078125,0,0.492188,-0.0078125,0,0,253,,,,0
2017/01/13,14:15:07,67,168,-0.00354004,-0.999634,-0.000549316,-0.0272217,-3.11955,0.0740814,-179.592,-0.0078125,0,0.492188,-0.0078125,0,0,254,,,,0
2017/01/13,14:15:07,67,186,-0.00286865,-0.999634,-0.00177002,-0.0285645,-3.27324,0.212463,-179.665,-0.015625,-0.0078125,0.5,-0.0078125,0,-0.0078125,254,,,,0
2017/01/13,14:15:07,67,218,-0.00286865,-0.999634,-0.00177002,-0.0285645,-3.27324,0.212463,-179.665,-0.015625,-0.0078125,0.507812,-0.015625,0,-0.0078125,254,,,,0
2017/01/13,14:15:07,67,253,-0.00164795,-0.99939,-0.00463867,-0.0348511,-3.99356,0.539108,-179.792,-0.0078125,-0.015625,0.507812,-0.015625,0,-0.0078125,254,,,,0
2017/01/13,14:15:07,67,254,-0.00164795,-0.99939,-0.00463867,-0.0348511,-3.99356,0.539108,-179.792,-0.015625,-0.015625,0.515625,-0.0234375,0.0078125,-0.0078125,254,,,,0
2017/01/13,14:15:07,67,285,0.000244141,-0.998718,-0.0114746,-0.0495605,-5.68157,1.31839,-179.963,-0.0234375,-0.03125,0.5,-0.03125,0.0078125,-0.0078125,254,,,,0
2017/01/13,14:15:07,67,319,0.000244141,-0.998718,-0.0114746,-0.0495605,-5.68157,1.31839,-179.963,-0.0234375,-0.046875,0.53125,-0.03125,0,-0.0078125,254,,,,0
2017/01/13,14:15:07,67,336,0.00164795,-0.997253,-0.0177612,-0.0725098,-8.31874,2.03769,179.959,-0.0390625,-0.046875,0.546875,-0.0390625,0,-0.0078125,254,,,,0
2017/01/13,14:15:07,67,369,0.00164795,-0.997253,-0.0177612,-0.0725098,-8.31874,2.03769,179.959,-0.015625,-0.0625,0.546875,-0.046875,0,-0.0078125,254,,,,0
2017/01/13,14:15:07,67,385,0.00366211,-0.99408,-0.0206299,-0.10675,-12.2623,2.35963,179.831,-0.0234375,-0.0859375,0.554688,-0.0546875,0,-0.0078125,254,,,,0
2017/01/13,14:15:07,67,402,0.00366211,-0.99408,-0.0206299,-0.10675,-12.2623,2.35963,179.831,-0.0390625,-0.101562,0.523438,-0.0546875,0,-0.0078125,254,,,,0
2017/01/13,14:15:07,67,435,0.00445557,-0.988281,-0.0234985,-0.151062,-17.3851,2.70848,179.898,-0.046875,-0.132812,0.523438,-0.0625,0,-0.0078125,254,,,,0
2017/01/13,14:15:07,67,468,0.00445557,-0.988281,-0.0234985,-0.151062,-17.3851,2.70848,179.898,-0.03125,-0.15625,0.53125,-0.0625,0,-0.0078125,254,,,,0
2017/01/13,14:15:07,67,485,0.00616455,-0.979126,-0.0249023,-0.201721,-23.2864,2.88779,179.874,-0.03125,-0.171875,0.539062,-0.0703125,0,-0.0078125,254,,,,0
2017/01/13,14:15:07,67,535,0.00616455,-0.979126,-0.0249023,-0.201721,-23.2864,2.88779,179.874,-0.015625,-0.195312,0.4375,-0.0703125,0,-0.0078125,254,,,,0
2017/01/13,14:15:07,67,536,0.00775146,-0.965942,-0.0264282,-0.257507,-29.8601,3.11043,179.91,-0.0078125,-0.234375,0.453125,-0.0703125,0,-0.0078125,254,,,,0
2017/01/13,14:15:07,67,551,0.00775146,-0.965942,-0.0264282,-0.257507,-29.8601,3.11043,179.91,-0.0234375,-0.242188,0.414062,-0.0625,0,0,255,,,,0
2017/01/13,14:15:07,67,585,0.00726318,-0.951477,-0.031311,-0.306091,-35.6571,3.89084,-179.623,-0.046875,-0.273438,0.460938,-0.0625,0,0,255,,,,0
2017/01/13,14:15:07,67,620,0.00726318,-0.951477,-0.031311,-0.306091,-35.6571,3.89084,-179.623,-0.101562,-0.296875,0.523438,-0.0625,0,0,255,,,,0
2017/01/13,14:15:07,67,635,0.00750732,-0.935974,-0.0376587,-0.350098,-40.9902,4.95741,-179.065,-0.15625,-0.304688,0.53125,-0.0625,0.0078125,-0.0078125,255,,,,0
2017/01/13,14:15:07,67,669,0.00750732,-0.935974,-0.0376587,-0.350098,-40.9902,4.95741,-179.065,-0.171875,-0.296875,0.570312,-0.0703125,0.0234375,-0.015625,256,,,,0
2017/01/13,14:15:07,67,669,0.00750732,-0.935974,-0.0376587,-0.350098,-40.9902,4.95741,-179.065,-0.171875,-0.296875,0.570312,-0.0703125,0.0234375,-0.015625,256,,,,0
2017/01/13,14:15:07,67,702,0.0215454,-0.91571,-0.057373,-0.397217,-46.8816,7.39267,-179.487,-0.09375,-0.304688,0.539062,-0.078125,0.03125,-0.0234375,256,,,,0
2017/01/13,14:15:07,67,720,0.0215454,-0.91571,-0.057373,-0.397217,-46.8816,7.39267,-179.487,-0.09375,-0.28125,0.476562,-0.0859375,0.03125,-0.03125,256,,,,0
2017/01/13,14:15:07,67,737,0.0511475,-0.885193,-0.0776978,-0.455933,-54.5997,9.02702,178.052,-0.109375,-0.265625,0.484375,-0.101562,0.0234375,-0.0390625,257,,,,0
2017/01/13,14:15:07,67,770,0.0511475,-0.885193,-0.0776978,-0.455933,-54.5997,9.02702,178.052,-0.148438,0.101562,0.414062,-0.117188,0.0234375,-0.046875,258,,,,0
2017/01/13,14:15:07,67,802,0.0874023,-0.844482,-0.0897827,-0.520752,-63.5375,7.81599,173.027,-0.140625,0.21875,0.609375,-0.03125,0.03125,-0.046875,259,,,,0
2017/01/13,14:15:07,67,818,0.0874023,-0.844482,-0.0897827,-0.520752,-63.5375,7.81599,173.027,-0.0390625,0.101562,0.546875,0.03125,0.03125,-0.03125,261,,,,0
2017/01/13,14:15:07,67,852,0.120911,-0.871826,-0.0871582,-0.466614,-56.5835,4.07477,166.402,0.0703125,-0.117188,0.34375,0.078125,-0.015625,-0.015625,263,,,,0
2017/01/13,14:15:07,67,853,0.120911,-0.871826,-0.0871582,-0.466614,-56.5835,4.07477,166.402,-0.03125,-0.0703125,0.3125,0.0625,-0.0390625,-0.0078125,265,,,,0
2017/01/13,14:15:07,67,949,0.118652,-0.903748,-0.0545044,-0.407776,-48.5893,0.151489,165.109,-0.078125,0,0.375,0.0625,-0.0234375,-0.0078125,268,,,,0
2017/01/13,14:15:07,67,968,0.118652,-0.903748,-0.0545044,-0.407776,-48.5893,0.151489,165.109,-0.0390625,0,0.421875,0.078125,-0.0078125,0,271,,,,0
2017/01/13,14:15:07,67,969,0.118286,-0.934509,-0.0378418,-0.333679,-39.2426,-0.607483,165.356,-0.0234375,-0.0546875,0.429688,0.0859375,-0.015625,0,276,,,,0
2017/01/13,14:15:07,67,970,0.118286,-0.934509,-0.0378418,-0.333679,-39.2426,-0.607483,165.356,-0.09375,-0.078125,0.445312,0.0859375,-0.0234375,0,282,,,,0
2017/01/13,14:15:08,68,2,0.110962,-0.961731,-0.0187378,-0.249878,-28.9987,-1.27173,166.508,-0.140625,-0.101562,0.492188,0.0859375,-0.015625,0.0078125,289,,,,0
2017/01/13,14:15:08,68,3,0.110962,-0.961731,-0.0187378,-0.249878,-28.9987,-1.27173,166.508,-0.171875,-0.109375,0.5625,0.0859375,-0.0078125,0.0078125,296,,,,0
2017/01/13,14:15:08,68,35,0.10022,-0.98114,-0.0130615,-0.1651,-19.062,-0.452301,168.259,-0.1875,-0.148438,0.625,0.09375,0,0.015625,305,,,,0
2017/01/13,14:15:08,68,69,0.10022,-0.98114,-0.0130615,-0.1651,-19.062,-0.452301,168.259,-0.21875,-0.203125,0.679688,0.09375,0,0.0234375,313,,,,0
2017/01/13,14:15:08,68,85,0.0793457,-0.993652,-0.0211182,-0.0771484,-9.01359,1.72462,171.005,-0.273438,-0.25,0.75,0.09375,0.0078125,0.03125,321,,,,0
2017/01/13,14:15:08,68,119,0.0793457,-0.993652,-0.0211182,-0.0771484,-9.01359,1.72462,171.005,-0.203125,-0.289062,0.78125,0.09375,0.0234375,0.03125,328,,,,0
2017/01/13,14:15:08,68,136,0.0519409,-0.997681,-0.0442505,0.00390625,0.183207,5.08875,174.031,-0.179688,-0.320312,0.75,0.09375,0.015625,0.03125,331,,,,0
2017/01/13,14:15:08,68,152,0.0519409,-0.997681,-0.0442505,0.00390625,0.183207,5.08875,174.031,-0.195312,-0.320312,0.734375,0.078125,0.015625,0.0234375,331,,,,0
2017/01/13,14:15:08,68,202,0.0288086,-0.995239,-0.0634766,0.0683594,7.60891,7.55283,176.181,-0.210938,-0.289062,0.75,0.078125,0.0234375,0.015625,328,,,,0
2017/01/13,14:15:08,68,220,0.0288086,-0.995239,-0.0634766,0.0683594,7.60891,7.55283,176.181,-0.125,-0.359375,0.664062,0.0859375,0.0390625,0,324,,,,0
2017/01/13,14:15:08,68,235,0.0266113,-0.987061,-0.0969849,0.125,13.9812,11.78,175.462,-0.0625,-0.429688,0.546875,0.0703125,0.0390625,-0.015625,318,,,,0
2017/01/13,14:15:08,68,269,0.0266113,-0.987061,-0.0969849,0.125,13.9812,11.78,175.462,0.0625,-0.4375,0.460938,0.0546875,0.046875,-0.0390625,312,,,,0
2017/01/13,14:15:08,68,286,0.052124,-0.977112,-0.135742,0.155396,16.8296,17.1008,171.345,0.335938,-0.46875,0.375,0.03125,0.046875,-0.046875,305,,,,0
2017/01/13,14:15:08,68,315,0.052124,-0.977112,-0.135742,0.155396,16.8296,17.1008,171.345,0.296875,-0.492188,0.367188,0.015625,0.0078125,-0.0390625,299,,,,0
2017/01/13,14:15:08,68,353,0.0852051,-0.974121,-0.145264,0.150818,15.6093,18.6946,167.417,0.125,-0.5,0.34375,0,-0.015625,-0.0234375,295,,,,0
2017/01/13,14:15:08,68,370,0.0852051,-0.974121,-0.145264,0.150818,15.6093,18.6946,167.417,0.09375,-0.429688,0.34375,-0.0234375,-0.0234375,-0.0078125,292,,,,0
2017/01/13,14:15:08,68,403,0.0967407,-0.979797,-0.128296,0.119446,12.078,16.3024,166.986,0.125,-0.320312,0.421875,-0.03125,-0.015625,0.0078125,291,,,,0
2017/01/13,14:15:08,68,418,0.0967407,-0.979797,-0.128296,0.119446,12.078,16.3024,166.986,-0.140625,0.992188,0.625,-0.0703125,-0.0625,0.0234375,292,STEP,BACK,HEEL,0.109059
2017/01/13,14:15:08,68,453,0.0786743,-0.990051,-0.0819702,0.0836182,8.78196,10.2259,170.126,0.132812,0.523438,0.414062,-0.0546875,-0.117188,0.015625,292,,,,0
2017/01/13,14:15:08,68,469,0.0786743,-0.990051,-0.0819702,0.0836182,8.78196,10.2259,170.126,-0.148438,0,0.640625,-0.117188,-0.046875,-0.0078125,294,,,,0
2017/01/13,14:15:08,68,486,0.0894165,-0.996033,-0.00146484,-0.003479,-0.412096,0.131531,169.741,0.0546875,-0.0625,0.953125,-0.09375,-0.0390625,0,296,,,,0
2017/01/13,14:15:08,68,518,0.0894165,-0.996033,-0.00146484,-0.003479,-0.412096,0.131531,169.741,0,0.0078125,0.492188,-0.0078125,-0.0078125,0,298,,,,0
2017/01/13,14:15:08,68,552,0.0899048,-0.995361,0.00939941,-0.0336914,-3.74868,-1.42232,169.631,-0.0078125,0,0.492188,-0.0078125,0,0,301,,,,0
2017/01/13,14:15:08,68,569,0.0899048,-0.995361,0.00939941,-0.0336914,-3.74868,-1.42232,169.631,-0.0078125,0,0.484375,-0.0078125,0,0,303,,,,0
2017/01/13,14:15:08,68,586,0.0892944,-0.995361,0.00836182,-0.0355225,-3.9693,-1.32045,169.702,0,0,0.492188,-0.0078125,0,0,305,,,,0
2017/01/13,14:15:08,68,619,0.0892944,-0.995361,0.00836182,-0.0355225,-3.9693,-1.32045,169.702,-0.0078125,0,0.492188,-0.0078125,0,0,307,,,,0
2017/01/13,14:15:08,68,635,0.0892334,-0.995361,0.00769043,-0.0362549,-4.05999,-1.25102,169.71,-0.0078125,0,0.492188,-0.0078125,0,0,309,,,,0
2017/01/13,14:15:08,68,668,0.0892334,-0.995361,0.00769043,-0.0362549,-4.05999,-1.25102,169.71,-0.0078125,0,0.492188,-0.0078125,0,0,310,,,,0
2017/01/13,14:15:08,68,702,0.0892334,-0.995361,0.00726318,-0.0354614,-3.97365,-1.19398,169.713,-0.0078125,0,0.492188,-0.0078125,-0.0078125,0,310,,,,0
2017/01/13,14:15:08,68,718,0.0892334,-0.995361,0.00726318,-0.0354614,-3.97365,-1.19398,169.713,-0.0078125,0,0.492188,-0.0078125,-0.0078125,0,310,,,,0
2017/01/13,14:15:08,68,753,0.0891724,-0.995422,0.00726318,-0.034668,-3.88323,-1.18546,169.722,-0.0078125,0,0.492188,-0.0078125,-0.0078125,0,310,,,,0
2017/01/13,14:15:08,68,769,0.0891724,-0.995422,0.00726318,-0.034668,-3.88323,-1.18546,169.722,-0.0078125,0,0.492188,-0.0078125,-0.0078125,0,310,,,,0
2017/01/13,14:15:08,68,786,0.0891113,-0.995422,0.00744629,-0.0339355,-3.79767,-1.19861,169.729,-0.0078125,0,0.492188,-0.0078125,-0.0078125,0,310,,,,0
2017/01/13,14:15:08,68,851,0.0891113,-0.995422,0.00744629,-0.0339355,-3.79767,-1.19861,169.729,-0.0078125,0,0.492188,-0.0078125,-0.0078125,0,310,,,,0
2017/01/13,14:15:08,68,852,0.0891724,-0.995422,0.00805664,-0.0334473,-3.73555,-1.26357,169.721,-0.0078125,0,0.484375,-0.0078125,-0.0078125,0,310,,,,0
2017/01/13,14:15:08,68,865,0.0891724,-0.995422,0.00805664,-0.0334473,-3.73555,-1.26357,169.721,0,0,0.492188,-0.0078125,-0.0078125,0,310,,,,0
2017/01/13,14:15:08,68,882,0.0891724,-0.995483,0.00842285,-0.0328369,-3.66226,-1.29901,169.721,0,0,0.492188,-0.0078125,-0.0078125,0,310,,,,0
2017/01/13,14:15:08,68,916,0.0891724,-0.995483,0.00842285,-0.0328369,-3.66226,-1.29901,169.721,-0.0078125,0,0.492188,-0.0078125,0,0,310,,,,0
2017/01/13,14:15:08,68,967,0.0891113,-0.995483,0.00811768,-0.0324097,-3.61661,-1.25952,169.73,0,0,0.492188,-0.0078125,0,0,310,,,,0
2017/01/13,14:15:08,68,968,0.0891113,-0.995483,0.00811768,-0.0324097,-3.61661,-1.25952,169.73,0,0,0.492188,-0.0078125,0,0,310,,,,0
2017/01/13,14:15:09,69,72,0.0892334,-0.995483,0.00775146,-0.0317993,-3.55048,-1.21179,169.718,0,0,0.492188,-0.0078125,0,0,311,,,,0
2017/01/13,14:15:09,69,73,0.0892334,-0.995483,0.00775146,-0.0317993,-3.55048,-1.21179,169.718,0,0,0.492188,-0.0078125,0,0,311,,,,0
2017/01/13,14:15:09,69,87,0.0893555,-0.995483,0.00726318,-0.03125,-3.4926,-1.15073,169.707,0,0,0.492188,-0.0078125,0,0,311,,,,0
2017/01/13,14:15:09,69,88,0.0893555,-0.995483,0.00726318,-0.03125,-3.4926,-1.15073,169.707,0,0,0.492188,-0.0078125,0,0,311,,,,0
2017/01/13,14:15:09,69,89,0.0895386,-0.995483,0.00665283,-0.0307007,-3.43595,-1.07593,169.688,-0.0078125,0,0.492188,-0.0078125,0,0,311,,,,0
2017/01/13,14:15:09,69,118,0.0895386,-0.995483,0.00665283,-0.0307007,-3.43595,-1.07593,169.688,0,0,0.492188,-0.0078125,0,0,311,,,,0
2017/01/13,14:15:09,69,218,0.0897827,-0.995544,0.00622559,-0.0301514,-3.3776,-1.02213,169.663,-0.0078125,0,0.492188,-0.0078125,0,0,311,,,,0
2017/01/13,14:15:09,69,236,0.0897827,-0.995544,0.00622559,-0.0301514,-3.3776,-1.02213,169.663,0,0,0.492188,-0.0078125,0,0,311,,,,0
2017/01/13,14:15:09,69,237,0.0899048,-0.995544,0.00585938,-0.0296021,-3.31852,-0.974991,169.651,-0.0078125,0,0.492188,-0.0078125,0,0,311,,,,0
2017/01/13,14:15:09,69,238,0.0899048,-0.995544,0.00585938,-0.0296021,-3.31852,-0.974991,169.651,-0.0078125,0,0.492188,-0.0078125,0,0,311,,,,0
2017/01/13,14:15:09,69,268,0.0900269,-0.995544,0.00567627,-0.0289917,-3.25059,-0.948135,169.639,0,0,0.492188,-0.0078125,0,0,311,,,,0
2017/01/13,14:15:09,69,286,0.0900269,-0.995544,0.00567627,-0.0289917,-3.25059,-0.948135,169.639,-0.0078125,0,0.492188,-0.0078125,-0.0078125,0,311,,,,0
2017/01/13,14:15:09,69,302,0.0900269,-0.995544,0.0055542,-0.0284424,-3.18908,-0.928482,169.64,-0.0078125,0,0.492188,-0.0078125,0,0,311,,,,0
2017/01/13,14:15:09,69,319,0.0900269,-0.995544,0.0055542,-0.0284424,-3.18908,-0.928482,169.64,-0.0078125,0,0.492188,-0.0078125,0,0,311,,,,0
2017/01/13,14:15:09,69,336,0.0900879,-0.995544,0.00531006,-0.0279541,-3.13578,-0.895706,169.634,-0.0078125,0,0.492188,-0.0078125,0,0,311,,,,0
2017/01/13,14:15:09,69,369,0.0900879,-0.995544,0.00531006,-0.0279541,-3.13578,-0.895706,169.634,-0.0078125,0,0.492188,-0.0078125,0,0,311,,,,0
2017/01/13,14:15:09,69,385,0.09021,-0.995544,0.00488281,-0.0275879,-3.09829,-0.84346,169.622,-0.0078125,0,0.492188,-0.0078125,0,0,311,,,,0
2017/01/13,14:15:09,69,419,0.09021,-0.995544,0.00488281,-0.0275879,-3.09829,-0.84346,169.622,0,0,0.492188,-0.0078125,0,0,311,,,,0
2017/01/13,14:15:09,69,468,0.090332,-0.995544,0.00427246,-0.0274658,-3.0906,-0.772827,169.61,-0.0078125,0,0.492188,-0.0078125,0,0,311,,,,0
2017/01/13,14:15:09,69,469,0.090332,-0.995544,0.00427246,-0.0274658,-3.0906,-0.772827,169.61,-0.0078125,0,0.492188,-0.0078125,0,0,311,,,,0
2017/01/13,14:15:09,69,503,0.0904541,-0.995544,0.00354004,-0.0274658,-3.09814,-0.689529,169.598,-0.0078125,0,0.492188,-0.0078125,0,0,311,,,,0
2017/01/13,14:15:09,69,552,0.0904541,-0.995544,0.00354004,-0.0274658,-3.09814,-0.689529,169.598,-0.0078125,-0.0078125,0.460938,-0.0078125,0,0,311,,,,0
2017/01/13,14:15:09,69,553,0.0908203,-0.995483,0.00280762,-0.0275879,-3.11938,-0.608307,169.558,-0.0078125,0,0.476562,-0.0078125,0,0,311,,,,0
2017/01/13,14:15:09,69,569,0.0908203,-0.995483,0.00280762,-0.0275879,-3.11938,-0.608307,169.558,-0.03125,0.0078125,0.515625,-0.0078125,-0.0078125,-0.0078125,311,,,,0
2017/01/13,14:15:09,69,602,0.0927124,-0.995239,0.00286865,-0.0310669,-3.51478,-0.658432,169.336,0.015625,-0.015625,0.585938,-0.03125,-0.0078125,-0.0078125,311,,,,0
2017/01/13,14:15:09,69,620,0.0927124,-0.995239,0.00286865,-0.0310669,-3.51478,-0.658432,169.336,0.015625,-0.0078125,0.625,-0.046875,-0.0078125,-0.0078125,311,,,,0
2017/01/13,14:15:09,69,631,0.0947266,-0.993347,0.00390625,-0.0657959,-7.46822,-1.16878,169.029,-0.0078125,-0.046875,0.640625,-0.0625,-0.0078125,-0.0078125,311,,,,0
2017/01/13,14:15:09,69,669,0.0947266,-0.993347,0.00390625,-0.0657959,-7.46822,-1.16878,169.029,-0.0078125,-0.0859375,0.609375,-0.078125,-0.0078125,-0.0078125,312,,,,0
2017/01/13,14:15:09,69,685,0.0961304,-0.987427,0.000915527,-0.125488,-14.3382,-1.53389,168.686,0.03125,-0.101562,0.59375,-0.09375,-0.0078125,-0.0078125,313,,,,0
2017/01/13,14:15:09,69,719,0.0961304,-0.987427,0.000915527,-0.125488,-14.3382,-1.53389,168.686,0.0234375,-0.140625,0.609375,-0.09375,-0.0078125,0,314,,,,0
2017/01/13,14:15:09,69,752,0.0958252,-0.975281,-0.00457764,-0.19928,-22.9287,-1.8206,168.408,0.03125,-0.15625,0.671875,-0.101562,0,0,315,,,,0
2017/01/13,14:15:09,69,786,0.0958252,-0.975281,-0.00457764,-0.19928,-22.9287,-1.8206,168.408,-0.03125,-0.1875,0.679688,-0.117188,0,0,316,,,,0
2017/01/13,14:15:09,69,787,0.0941772,-0.954407,-0.0148926,-0.282959,-32.8827,-1.69688,168.228,-0.015625,-0.21875,0.804688,-0.125,-0.0078125,0,317,,,,0
2017/01/13,14:15:09,69,819,0.0941772,-0.954407,-0.0148926,-0.282959,-32.8827,-1.69688,168.228,-0.0859375,-0.1875,0.765625,-0.132812,-0.0078125,-0.0078125,318,,,,0
2017/01/13,14:15:09,69,836,0.0918579,-0.921204,-0.0213013,-0.377502,-44.381,-2.41428,167.626,-0.125,-0.140625,0.679688,-0.148438,-0.0078125,-0.0078125,320,,,,0
2017/01/13,14:15:09,69,868,0.0918579,-0.921204,-0.0213013,-0.377502,-44.381,-2.41428,167.626,-0.09375,-0.03125,0.429688,-0.164062,0,-0.0234375,321,,,,0
2017/01/13,14:15:09,69,902,0.098999,-0.868713,-0.03125,-0.484436,-57.9796,-4.5005,164.503,-0.210938,0.476562,0.507812,-0.109375,0,-0.03125,322,LIFT,,TOE,0.0321853
2017/01/13,14:15:09,69,920,0.098999,-0.868713,-0.03125,-0.484436,-57.9796,-4.5005,164.503,-0.109375,0.367188,0.679688,-0.0234375,0.0078125,-0.0234375,324,,,,0
2017/01/13,14:15:09,69,933,0.11438,-0.87616,-0.0276489,-0.467529,-55.6479,-5.94928,161.983,0.03125,-0.03125,0.25,0.0703125,-0.03125,-0.0078125,325,,,,0
2017/01/13,14:15:09,69,986,0.11438,-0.87616,-0.0276489,-0.467529,-55.6479,-5.94928,161.983,-0.078125,0,0.210938,0.0625,-0.0390625,0,326,,,,0
2017/01/13,14:15:09,69,987,0.104187,-0.907166,0.00195312,-0.407715,-47.6738,-7.55177,163.556,-0.0546875,-0.046875,0.273438,0.078125,-0.015625,0,327,,,,0
2017/01/13,14:15:10,70,20,0.104187,-0.907166,0.00195312,-0.407715,-47.6738,-7.55177,163.556,-0.0078125,-0.132812,0.328125,0.078125,0,0.0078125,327,,,,0
2017/01/13,14:15:10,70,52,0.0939331,-0.937439,0.00689697,-0.335205,-38.8419,-5.59232,166.583,-0.0234375,-0.15625,0.375,0.0859375,-0.0078125,0.015625,327,,,,0
2017/01/13,14:15:10,70,68,0.0939331,-0.937439,0.00689697,-0.335205,-38.8419,-5.59232,166.583,-0.0546875,-0.195312,0.4375,0.0859375,0,0.0078125,327,,,,0
2017/01/13,14:15:10,70,102,0.0808716,-0.962585,0.00714111,-0.258789,-29.8056,-3.67351,169.417,-0.0546875,-0.226562,0.46875,0.078125,0,0.0078125,327,,,,0
2017/01/13,14:15:10,70,137,0.0808716,-0.962585,0.00714111,-0.258789,-29.8056,-3.67351,169.417,-0.0625,-0.242188,0.507812,0.078125,0.0078125,0.015625,326,,,,0
2017/01/13,14:15:10,70,199,0.0689087,-0.979736,-0.00115967,-0.188293,-21.6611,-1.45973,171.674,-0.09375,-0.257812,0.5625,0.0703125,0.0078125,0.0234375,325,,,,0
2017/01/13,14:15:10,70,218,0.0689087,-0.979736,-0.00115967,-0.188293,-21.6611,-1.45973,171.674,-0.109375,-0.289062,0.601562,0.0625,0.015625,0.03125,323,,,,0
2017/01/13,14:15:10,70,219,0.0427246,-0.990601,-0.0202637,-0.128601,-14.8634,1.72858,175.286,-0.109375,-0.304688,0.617188,0.0546875,0.015625,0.0390625,321,,,,0
2017/01/13,14:15:10,70,220,0.0427246,-0.990601,-0.0202637,-0.128601,-14.8634,1.72858,175.286,-0.117188,-0.328125,0.648438,0.046875,0.0234375,0.0390625,318,,,,0
2017/01/13,14:15:10,70,235,0.0078125,-0.995178,-0.0469971,-0.0857544,-9.87017,5.36993,179.564,-0.0859375,-0.335938,0.671875,0.0390625,0.0234375,0.0390625,314,,,,0
2017/01/13,14:15:10,70,269,0.0078125,-0.995178,-0.0469971,-0.0857544,-9.87017,5.36993,179.564,-0.0703125,-0.3125,0.640625,0.046875,0.015625,0.03125,310,,,,0
2017/01/13,14:15:10,70,285,-0.019165,-0.996338,-0.0661011,-0.0517578,-5.77389,7.72217,-177.406,-0.09375,-0.320312,0.617188,0.0546875,0,0.0234375,305,,,,0
2017/01/13,14:15:10,70,319,-0.019165,-0.996338,-0.0661011,-0.0517578,-5.77389,7.72217,-177.406,-0.117188,-0.328125,0.585938,0.0546875,-0.0078125,0.0078125,301,,,,0
2017/01/13,14:15:10,70,352,-0.0287476,-0.997253,-0.0684814,-0.00946045,-0.855548,7.88177,-176.639,-0.132812,-0.34375,0.523438,0.0625,0,-0.0078125,297,,,,0
2017/01/13,14:15:10,70,369,-0.0287476,-0.997253,-0.0684814,-0.00946045,-0.855548,7.88177,-176.639,-0.109375,-0.351562,0.445312,0.0625,0.0078125,-0.015625,294,,,,0
2017/01/13,14:15:10,70,387,-0.0133057,-0.996155,-0.0801392,0.0344849,4.06207,9.15617,-178.795,-0.0390625,-0.351562,0.40625,0.0546875,0.0234375,-0.03125,291,,,,0
2017/01/13,14:15:10,70,418,-0.0133057,-0.996155,-0.0801392,0.0344849,4.06207,9.15617,-178.795,0.03125,-0.351562,0.367188,0.0390625,0.0234375,-0.03125,288,,,,0
2017/01/13,14:15:10,70,435,0.0151978,-0.992859,-0.1026,0.05896,6.5436,11.9392,177.561,0.0546875,-0.304688,0.359375,0.0234375,0.015625,-0.03125,286,,,,0
2017/01/13,14:15:10,70,469,0.0151978,-0.992859,-0.1026,0.05896,6.5436,11.9392,177.561,0.0625,-0.25,0.375,0.015625,0,-0.0234375,285,,,,0
2017/01/13,14:15:10,70,502,0.0369263,-0.991455,-0.106628,0.0657959,7.04175,12.5873,174.956,0.0625,-0.21875,0.375,0.0234375,-0.015625,-0.0078125,284,,,,0
2017/01/13,14:15:10,70,520,0.0369263,-0.991455,-0.106628,0.0657959,7.04175,12.5873,174.956,0.03125,-0.320312,0.34375,0.015625,-0.03125,0.0078125,282,,,,0
2017/01/13,14:15:10,70,536,0.0386353,-0.993225,-0.0828247,0.0721436,7.86906,9.88722,174.863,0.0078125,-0.40625,0.335938,-0.0078125,-0.0390625,0.0234375,280,,,,0
2017/01/13,14:15:10,70,568,0.0386353,-0.993225,-0.0828247,0.0721436,7.86906,9.88722,174.863,0.117188,-0.0078125,0.164062,-0.0546875,-0.0546875,0.03125,278,,,,0
2017/01/13,14:15:10,70,586,0.0159912,-0.997681,-0.0501709,0.0442505,4.97328,5.84846,177.909,0.296875,0.226562,0.265625,-0.0703125,-0.078125,0.0234375,277,STEP,BACK,HEEL,0.0265482
2017/01/13,14:15:10,70,618,0.0159912,-0.997681,-0.0501709,0.0442505,4.97328,5.84846,177.909,0,-0.0546875,0.914062,-0.117188,-0.03125,-0.0078125,276,,,,0
2017/01/13,14:15:10,70,652,0.0126953,-0.999634,0.00219727,-0.0245972,-2.81553,-0.287827,178.538,-0.0078125,-0.0234375,0.539062,-0.015625,-0.0078125,-0.0078125,276,,,,0
2017/01/13,14:15:10,70,668,0.0126953,-0.999634,0.00219727,-0.0245972,-2.81553,-0.287827,178.538,-0.0078125,0,0.484375,-0.0078125,-0.0078125,0,277,,,,0
2017/01/13,14:15:10,70,685,0.0135498,-0.99939,0.00543213,-0.0330811,-3.78281,-0.674881,178.424,0,0,0.492188,-0.0078125,-0.0078125,0,278,,,,0
2017/01/13,14:15:10,70,718,0.0135498,-0.99939,0.00543213,-0.0330811,-3.78281,-0.674881,178.424,0,0,0.492188,-0.0078125,-0.0078125,0,279,,,,0
2017/01/13,14:15:10,70,736,0.0135498,-0.99939,0.00592041,-0.0334473,-3.82408,-0.731506,178.422,0,0,0.492188,-0.0078125,-0.0078125,0,281,,,,0
2017/01/13,14:15:10,70,769,0.0135498,-0.99939,0.00592041,-0.0334473,-3.82408,-0.731506,178.422,0,0,0.492188,-0.0078125,0,0,282,,,,0
2017/01/13,14:15:10,70,803,0.0134277,-0.99939,0.00598145,-0.03302,-3.77503,-0.737366,178.436,0,0,0.484375,-0.0078125,0,0,284,,,,0
2017/01/13,14:15:10,70,819,0.0134277,-0.99939,0.00598145,-0.03302,-3.77503,-0.737366,178.436,0,0,0.484375,-0.0078125,0,0,285,,,,0
2017/01/13,14:15:10,70,852,0.0133057,-0.99939,0.00585938,-0.0324097,-3.70526,-0.721939,178.451,0,0,0.492188,-0.0078125,0,0,285,,,,0
2017/01/13,14:15:10,70,869,0.0133057,-0.99939,0.00585938,-0.0324097,-3.70526,-0.721939,178.451,0,0,0.492188,-0.0078125,0,0,285,,,,0
2017/01/13,14:15:10,70,888,0.0131836,-0.99939,0.00567627,-0.0319824,-3.65659,-0.699799,178.466,0,0,0.492188,-0.0078125,0,0,285,,,,0
2017/01/13,14:15:10,70,919,0.0131836,-0.99939,0.00567627,-0.0319824,-3.65659,-0.699799,178.466,0,0,0.492188,-0.0078125,0,0,285,,,,0
2017/01/13,14:15:10,70,952,0.0130615,-0.999451,0.0055542,-0.0314331,-3.59403,-0.684464,178.481,0,0,0.492188,-0.0078125,0,0,285,,,,0
2017/01/13,14:15:10,70,968,0.0130615,-0.999451,0.0055542,-0.0314331,-3.59403,-0.684464,178.481,0,0,0.484375,-0.0078125,0,0,285,,,,0
2017/01/13,14:15:11,71,2,0.0130005,-0.999451,0.00531006,-0.0310669,-3.55241,-0.65567,178.489,0,0,0.492188,-0.0078125,0,0,285,,,,0
2017/01/13,14:15:11,71,19,0.0130005,-0.999451,0.00531006,-0.0310669,-3.55241,-0.65567,178.489,0,0,0.492188,-0.0078125,0,0,285,,,,0
2017/01/13,14:15:11,71,36,0.0129395,-0.999451,0.00500488,-0.0305786,-3.49688,-0.61969,178.498,0,0,0.492188,-0.0078125,0,0,285,,,,0
2017/01/13,14:15:11,71,69,0.0129395,-0.999451,0.00500488,-0.0305786,-3.49688,-0.61969,178.498,0,0,0.492188,-0.0078125,-0.0078125,0,285,,,,0
2017/01/13,14:15:11,71,98,0.0128784,-0.999512,0.00500488,-0.0300293,-3.43409,-0.618607,178.505,0,0,0.492188,-0.0078125,-0.0078125,0,285,,,,0
2017/01/13,14:15:11,71,99,0.0128784,-0.999512,0.00500488,-0.0300293,-3.43409,-0.618607,178.505,0,0,0.492188,-0.0078125,-0.0078125,0,285,,,,0
2017/01/13,14:15:11,71,132,0.0129395,-0.999512,0.00549316,-0.0296631,-3.39131,-0.674271,178.497,0,0,0.492188,-0.0078125,0,0,285,,,,0
2017/01/13,14:15:11,71,239,0.0129395,-0.999512,0.00549316,-0.0296631,-3.39131,-0.674271,178.497,0,0,0.492188,-0.0078125,0,0,285,,,,0
2017/01/13,14:15:11,71,240,0.0129395,-0.999512,0.00543213,-0.0292969,-3.34939,-0.666718,178.497,0,0,0.492188,-0.0078125,0,0,285,,,,0
2017/01/13,14:15:11,71,249,0.0129395,-0.999512,0.00543213,-0.0292969,-3.34939,-0.666718,178.497,0,0,0.492188,-0.0078125,0,0,285,,,,0
2017/01/13,14:15:11,71,250,0.0130615,-0.999512,0.00518799,-0.0289917,-3.31467,-0.638641,178.484,0,0,0.492188,-0.0078125,0,0,285,,,,0
2017/01/13,14:15:11,71,332,0.0130615,-0.999512,0.00518799,-0.0289917,-3.31467,-0.638641,178.484,0,0,0.492188,-0.0078125,0,0,285,,,,0
2017/01/13,14:15:11,71,333,0.0131836,-0.999512,0.00506592,-0.0286865,-3.27977,-0.624573,178.471,0,0,0.492188,-0.0078125,0,0,285,,,,0
2017/01/13,14:15:11,71,334,0.0131836,-0.999512,0.00506592,-0.0286865,-3.27977,-0.624573,178.471,0,0,0.484375,-0.0078125,0,0,285,,,,0
2017/01/13,14:15:11,71,370,0.0133057,-0.999512,0.00482178,-0.0283813,-3.24506,-0.596497,178.458,0,0,0.492188,-0.0078125,0,0,285,,,,0
2017/01/13,14:15:11,71,371,0.0133057,-0.999512,0.00482178,-0.0283813,-3.24506,-0.596497,178.458,0,0,0.492188,-0.0078125,0,0,285,,,,0
2017/01/13,14:15:11,71,402,0.0134888,-0.999512,0.00445557,-0.0280151,-3.20351,-0.554504,178.438,0,0,0.492188,-0.0078125,0,0,285,,,,0
2017/01/13,14:15:11,71,433,0.0134888,-0.999512,0.00445557,-0.0280151,-3.20351,-0.554504,178.438,0,0,0.492188,-0.0078125,0,0,285,,,,0
2017/01/13,14:15:11,71,454,0.0136719,-0.999573,0.00408936,-0.0275879,-3.15518,-0.51236,178.419,0,0,0.492188,-0.0078125,0,0,285,,,,0
2017/01/13,14:15:11,71,471,0.0136719,-0.999573,0.00408936,-0.0275879,-3.15518,-0.51236,178.419,-0.0078125,0,0.492188,-0.0078125,0,0,285,,,,0
2017/01/13,14:15:11,71,519,0.013855,-0.999573,0.00366211,-0.0272217,-3.11376,-0.463333,178.399,0,0,0.492188,-0.0078125,0,0,285,,,,0
2017/01/13,14:15:11,71,520,0.013855,-0.999573,0.00366211,-0.0272217,-3.11376,-0.463333,178.399,-0.0078125,0,0.492188,-0.0078125,0,0,285,,,,0
2017/01/13,14:15:11,71,569,0.0140381,-0.999573,0.00305176,-0.0269775,-3.08666,-0.393494,178.38,-0.0078125,0,0.492188,-0.0078125,0,0,285,,,,0
2017/01/13,14:15:11,71,586,0.0140381,-0.999573,0.00305176,-0.0269775,-3.08666,-0.393494,178.38,-0.0078125,0,0.492188,-0.0078125,0,0,285,,,,0
2017/01/13,14:15:11,71,602,0.0145874,-0.999573,0.0020752,-0.0269165,-3.0811,-0.283081,178.32,-0.0078125,0.0078125,0.492188,-0.0078125,0,-0.0078125,285,,,,0
2017/01/13,14:15:11,71,619,0.0145874,-0.999573,0.0020752,-0.0269165,-3.0811,-0.283081,178.32,0.0078125,-0.015625,0.515625,-0.0078125,0,-0.0078125,285,,,,0
2017/01/13,14:15:11,71,653,0.0159912,-0.999512,-0.000671387,-0.0288696,-3.30967,0.0240326,178.167,0,-0.0078125,0.53125,-0.015625,0,-0.0078125,285,,,,0
2017/01/13,14:15:11,71,669,0.0159912,-0.999512,-0.000671387,-0.0288696,-3.30967,0.0240326,178.167,-0.0390625,-0.0078125,0.5625,-0.03125,0.0078125,-0.0078125,285,,,,0
2017/01/13,14:15:11,71,702,0.0177002,-0.998901,-0.00897217,-0.043335,-4.98485,0.942642,178.011,0.0078125,0,0.554688,-0.046875,0.0078125,-0.0078125,286,,,,0
2017/01/13,14:15:11,71,736,0.0177002,-0.998901,-0.00897217,-0.043335,-4.98485,0.942642,178.011,-0.0390625,-0.046875,0.59375,-0.0546875,0.0078125,-0.0078125,286,,,,0
2017/01/13,14:15:11,71,753,0.0198364,-0.996033,-0.0200195,-0.0846558,-9.75491,2.12364,177.899,-0.0234375,-0.0703125,0.585938,-0.0703125,0,-0.0078125,287,,,,0
2017/01/13,14:15:11,71,769,0.0198364,-0.996033,-0.0200195,-0.0846558,-9.75491,2.12364,177.899,-0.0390625,-0.09375,0.546875,-0.0703125,0,-0.0078125,289,,,,0
2017/01/13,14:15:11,71,802,0.0221558,-0.989685,-0.024353,-0.139832,-16.1324,2.50601,177.79,-0.03125,-0.125,0.578125,-0.078125,-0.0078125,-0.0078125,291,,,,0
2017/01/13,14:15:11,71,819,0.0221558,-0.989685,-0.024353,-0.139832,-16.1324,2.50601,177.79,0,-0.15625,0.578125,-0.0859375,0,-0.0078125,294,,,,0
2017/01/13,14:15:11,71,852,0.0247192,-0.978699,-0.0247803,-0.202393,-23.415,2.40437,177.605,-0.0390625,-0.164062,0.59375,-0.0859375,0,-0.0078125,296,,,,0
2017/01/13,14:15:11,71,885,0.0247192,-0.978699,-0.0247803,-0.202393,-23.415,2.40437,177.605,-0.03125,-0.203125,0.546875,-0.09375,0.0078125,-0.0078125,300,,,,0
2017/01/13,14:15:11,71,886,0.0256348,-0.961121,-0.0322876,-0.273193,-31.7894,3.24081,177.867,-0.0625,-0.242188,0.664062,-0.101562,0.0078125,-0.0078125,303,,,,0
2017/01/13,14:15:11,71,919,0.0256348,-0.961121,-0.0322876,-0.273193,-31.7894,3.24081,177.867,-0.0703125,-0.242188,0.703125,-0.109375,0.0078125,-0.0078125,307,,,,0
2017/01/13,14:15:11,71,983,0.027771,-0.935364,-0.043457,-0.349976,-41.0808,4.70677,178.363,-0.09375,-0.21875,0.671875,-0.117188,0.015625,-0.0078125,310,,,,0
2017/01/13,14:15:11,71,984,0.027771,-0.935364,-0.043457,-0.349976,-41.0808,4.70677,178.363,-0.117188,-0.195312,0.625,-0.132812,0.015625,-0.015625,314,,,,0
2017/01/13,14:15:12,72,2,0.0361938,-0.897644,-0.0600586,-0.435181,-51.7783,7.08459,178.823,-0.125,-0.0859375,0.484375,-0.148438,0.0234375,-0.0234375,317,,,,0
2017/01/13,14:15:12,72,16,0.0361938,-0.897644,-0.0600586,-0.435181,-51.7783,7.08459,178.823,-0.117188,0.414062,0.445312,-0.109375,0.0234375,-0.03125,320,LIFT,,TOE,0.0257217
2017/01/13,14:15:12,72,32,0.0566406,-0.852844,-0.0770874,-0.513428,-62.1876,9.03758,177.857,-0.046875,0.328125,0.671875,-0.03125,0.0234375,-0.0234375,323,,,,0
2017/01/13,14:15:12,72,70,0.0566406,-0.852844,-0.0770874,-0.513428,-62.1876,9.03758,177.857,0.046875,-0.03125,0.320312,0.078125,-0.03125,-0.0078125,325,,,,0
2017/01/13,14:15:12,72,119,0.0683594,-0.884949,-0.0594482,-0.456909,-54.7667,4.24818,173.367,-0.0625,-0.0390625,0.265625,0.0703125,-0.0390625,-0.015625,327,,,,0
2017/01/13,14:15:12,72,120,0.0683594,-0.884949,-0.0594482,-0.456909,-54.7667,4.24818,173.367,-0.0546875,-0.0390625,0.304688,0.078125,-0.0234375,-0.015625,329,,,,0
2017/01/13,14:15:12,72,153,0.0686035,-0.917969,-0.0283813,-0.389648,-45.9938,-0.111847,171.405,-0.03125,-0.046875,0.320312,0.078125,-0.0234375,-0.015625,330,,,,0
2017/01/13,14:15:12,72,187,0.0686035,-0.917969,-0.0283813,-0.389648,-45.9938,-0.111847,171.405,-0.0625,-0.0234375,0.40625,0.078125,-0.015625,-0.0078125,331,,,,0
2017/01/13,14:15:12,72,188,0.0706787,-0.946716,-0.0101318,-0.31427,-36.6183,-1.80171,170.865,-0.101562,-0.046875,0.445312,0.09375,-0.015625,0,331,,,,0
2017/01/13,14:15:12,72,306,0.0706787,-0.946716,-0.0101318,-0.31427,-36.6183,-1.80171,170.865,-0.101562,-0.078125,0.492188,0.09375,-0.0078125,0,330,,,,0
2017/01/13,14:15:12,72,307,0.0647583,-0.972229,-0.00268555,-0.224976,-25.9638,-1.52422,172.027,-0.078125,-0.101562,0.5625,0.09375,0,0.0078125,329,,,,0
2017/01/13,14:15:12,72,315,0.0647583,-0.972229,-0.00268555,-0.224976,-25.9638,-1.52422,172.027,-0.09375,-0.15625,0.632812,0.09375,0,0.015625,325,,,,0
2017/01/13,14:15:12,72,316,0.0528564,-0.989502,-0.0055542,-0.134644,-15.4886,-0.192734,173.858,-0.109375,-0.226562,0.703125,0.09375,0,0.015625,322,,,,0
2017/01/13,14:15:12,72,317,0.0528564,-0.989502,-0.0055542,-0.134644,-15.4886,-0.192734,173.858,-0.117188,-0.265625,0.734375,0.0859375,0.0078125,0.0234375,318,,,,0
2017/01/13,14:15:12,72,336,0.0324097,-0.997803,-0.0148926,-0.0567627,-6.55986,1.50185,176.365,-0.125,-0.289062,0.757812,0.078125,0.015625,0.03125,314,,,,0
2017/01/13,14:15:12,72,386,0.0324097,-0.997803,-0.0148926,-0.0567627,-6.55986,1.50185,176.365,-0.125,-0.335938,0.757812,0.0703125,0.0234375,0.03125,310,,,,0
2017/01/13,14:15:12,72,498,0.00683594,-0.999329,-0.036377,0.00537109,0.586583,4.17357,179.195,-0.0703125,-0.328125,0.789062,0.0703125,0.03125,0.0234375,308,,,,0
2017/01/13,14:15:12,72,537,0.00683594,-0.999329,-0.036377,0.00537109,0.586583,4.17357,179.195,-0.03125,-0.296875,0.710938,0.078125,0.015625,0.0234375,308,,,,0
2017/01/13,14:15:12,72,538,-0.0140381,-0.996582,-0.0560913,0.0599976,6.95904,6.36827,-178.774,-0.0859375,-0.375,0.609375,0.0859375,-0.0078125,0.015625,308,,,,0
2017/01/13,14:15:12,72,539,-0.0140381,-0.996582,-0.0560913,0.0599976,6.95904,6.36827,-178.774,-0.09375,-0.429688,0.492188,0.0703125,0,0,310,,,,0
2017/01/13,14:15:12,72,540,-0.0202637,-0.991882,-0.0600586,0.110474,12.8023,6.75255,-178.418,-0.046875,-0.445312,0.421875,0.046875,0.015625,-0.015625,312,,,,0
2017/01/13,14:15:12,72,538,-0.0202637,-0.991882,-0.0600586,0.110474,12.8023,6.75255,-178.418,0,-0.40625,0.390625,0.0234375,0.015625,-0.03125,314,,,,0
2017/01/13,14:15:12,72,570,-0.0022583,-0.989441,-0.0768433,0.122925,14.0992,8.98711,179.148,0.0390625,-0.398438,0.359375,0.0234375,0.015625,-0.03125,317,,,,0
2017/01/13,14:15:12,72,604,-0.0022583,-0.989441,-0.0768433,0.122925,14.0992,8.98711,179.148,0.078125,-0.46875,0.296875,0.015625,0,-0.03125,319,,,,0
2017/01/13,14:15:12,72,618,0.0238037,-0.988953,-0.0853882,0.119202,13.3974,10.3366,176.025,0.03125,-0.476562,0.289062,-0.0078125,-0.015625,-0.015625,319,,,,0
2017/01/13,14:15:12,72,619,0.0238037,-0.988953,-0.0853882,0.119202,13.3974,10.3366,176.025,-0.046875,-0.40625,0.359375,-0.03125,-0.015625,0,319,,,,0
2017/01/13,14:15:12,72,653,0.0283813,-0.993225,-0.074646,0.0847778,9.44901,8.92775,175.987,-0.03125,0.46875,0.351562,-0.0625,-0.0390625,0.0234375,319,STEP,CENTER,HEEL,0.0455276
2017/01/13,14:15:12,72,668,0.0283813,-0.993225,-0.074646,0.0847778,9.44901,8.92775,175.987,0.101562,0.359375,0.171875,-0.0859375,-0.09375,0.015625,320,,,,0
2017/01/13,14:15:12,72,703,0.0126343,-0.999695,-0.0045166,0.022583,2.58137,0.550629,178.539,0.132812,-0.078125,0.945312,-0.132812,-0.03125,-0.0078125,322,,,,0
2017/01/13,14:15:12,72,718,0.0126343,-0.999695,-0.0045166,0.022583,2.58137,0.550629,178.539,-0.0078125,0.015625,0.5,-0.0078125,0,0,324,,,,0
2017/01/13,14:15:12,72,752,0.0151367,-0.999268,0.0102539,-0.0343628,-3.92007,-1.23668,178.222,0,0.0078125,0.476562,-0.0078125,0,0,327,,,,0
2017/01/13,14:15:12,72,783,0.0151367,-0.999268,0.0102539,-0.0343628,-3.92007,-1.23668,178.222,0,-0.0078125,0.492188,-0.0078125,0,0,329,,,,0
2017/01/13,14:15:12,72,803,0.0148315,-0.999268,0.00964355,-0.0339355,-3.87244,-1.16467,178.26,0,0,0.492188,-0.0078125,-0.0078125,0,331,,,,0
2017/01/13,14:15:12,72,818,0.0148315,-0.999268,0.00964355,-0.0339355,-3.87244,-1.16467,178.26,0,0,0.492188,-0.0078125,-0.0078125,0,332,,,,0
2017/01/13,14:15:12,72,851,0.0148926,-0.999329,0.00976562,-0.0333862,-3.80935,-1.17786,178.253,0,0,0.492188,-0.0078125,-0.0078125,0,334,,,,0
2017/01/13,14:15:12,72,869,0.0148926,-0.999329,0.00976562,-0.0333862,-3.80935,-1.17786,178.253,0,0,0.492188,-0.0078125,-0.0078125,0,335,,,,0
2017/01/13,14:15:12,72,904,0.0148926,-0.999329,0.00994873,-0.0327148,-3.73199,-1.19766,178.253,0,0,0.492188,-0.0078125,-0.0078125,0,336,,,,0
2017/01/13,14:15:12,72,936,0.0148926,-0.999329,0.00994873,-0.0327148,-3.73199,-1.19766,178.253,0,0,0.484375,-0.0078125,-0.0078125,0,336,,,,0
2017/01/13,14:15:12,72,937,0.0148315,-0.999329,0.0100708,-0.0320435,-3.65481,-1.21027,178.261,0,0,0.492188,-0.0078125,-0.0078125,0,335,,,,0
2017/01/13,14:15:12,72,969,0.0148315,-0.999329,0.0100708,-0.0320435,-3.65481,-1.21027,178.261,0,0,0.492188,-0.0078125,-0.0078125,0,335,,,,0
2017/01/13,14:15:13,73,2,0.0146484,-0.99939,0.0100708,-0.0315552,-3.59921,-1.20865,178.283,0,0,0.492188,-0.0078125,0,0,335,,,,0
2017/01/13,14:15:13,73,19,0.0146484,-0.99939,0.0100708,-0.0315552,-3.59921,-1.20865,178.283,0,0,0.492188,-0.0078125,0,0,336,,,,0
2017/01/13,14:15:13,73,53,0.0144653,-0.99939,0.00970459,-0.031189,-3.55801,-1.16534,178.305,0,0,0.492188,-0.0078125,0,0,336,,,,0
2017/01/13,14:15:13,73,85,0.0144653,-0.99939,0.00970459,-0.031189,-3.55801,-1.16534,178.305,0,0,0.492188,-0.0078125,0,0,336,,,,0
2017/01/13,14:15:13,73,86,0.0143433,-0.99939,0.00915527,-0.0308228,-3.51703,-1.10126,178.322,0,0,0.492188,-0.0078125,0,0,335,,,,0
2017/01/13,14:15:13,73,118,0.0143433,-0.99939,0.00915527,-0.0308228,-3.51703,-1.10126,178.322,0,0,0.492188,-0.0078125,0,0,336,,,,0
2017/01/13,14:15:13,73,179,0.0143433,-0.999451,0.00872803,-0.0303345,-3.46193,-1.05135,178.324,0,0,0.492188,-0.0078125,0,0,335,,,,0
2017/01/13,14:15:13,73,180,0.0143433,-0.999451,0.00872803,-0.0303345,-3.46193,-1.05135,178.324,0,0,0.492188,-0.0078125,0,0,335,,,,0
2017/01/13,14:15:13,73,203,0.0142822,-0.999451,0.00848389,-0.0298462,-3.40636,-1.02228,178.332,0,0,0.492188,-0.0078125,-0.0078125,0,335,,,,0
2017/01/13,14:15:13,73,220,0.0142822,-0.999451,0.00848389,-0.0298462,-3.40636,-1.02228,178.332,0,0,0.492188,-0.0078125,-0.0078125,0,335,,,,0
2017/01/13,14:15:13,73,252,0.0142822,-0.999451,0.00848389,-0.0292969,-3.34334,-1.02135,178.333,0,0,0.492188,-0.0078125,-0.0078125,0,335,,,,0
2017/01/13,14:15:13,73,269,0.0142822,-0.999451,0.00848389,-0.0292969,-3.34334,-1.02135,178.333,0,0,0.492188,-0.0078125,-0.0078125,0,335,,,,0
2017/01/13,14:15:13,73,302,0.0142212,-0.999512,0.00848389,-0.0285645,-3.25958,-1.01984,178.341,0,0,0.492188,-0.0078125,-0.0078125,0,335,,,,0
2017/01/13,14:15:13,73,319,0.0142212,-0.999512,0.00848389,-0.0285645,-3.25958,-1.01984,178.341,0,0,0.492188,-0.0078125,-0.0078125,0,335,,,,0
2017/01/13,14:15:13,73,352,0.0142212,-0.999512,0.00848389,-0.0279541,-3.18956,-1.01881,178.341,0,0,0.492188,-0.0078125,-0.0078125,0,335,,,,0
2017/01/13,14:15:13,73,386,0.0142212,-0.999512,0.00848389,-0.0279541,-3.18956,-1.01881,178.341,0,0,0.492188,-0.0078125,-0.0078125,0,335,,,,0
2017/01/13,14:15:13,73,387,0.0142822,-0.999512,0.00860596,-0.0272827,-3.11229,-1.03188,178.335,0,0,0.492188,-0.0078125,-0.0078125,0,335,,,,0
2017/01/13,14:15:13,73,436,0.0142822,-0.999512,0.00860596,-0.0272827,-3.11229,-1.03188,178.335,0,0,0.492188,-0.0078125,-0.0078125,0,335,,,,0
2017/01/13,14:15:13,73,452,0.0143433,-0.999512,0.00866699,-0.0266724,-3.04212,-1.03802,178.328,0,0,0.492188,-0.0078125,-0.0078125,0,335,,,,0
2017/01/13,14:15:13,73,469,0.0143433,-0.999512,0.00866699,-0.0266724,-3.04212,-1.03802,178.328,0,0,0.492188,-0.0078125,0,0,335,,,,0
2017/01/13,14:15:13,73,502,0.0144043,-0.999573,0.00854492,-0.0261841,-2.98644,-1.0233,178.322,0,0,0.492188,-0.0078125,0,0,335,,,,0
2017/01/13,14:15:13,73,536,0.0144043,-0.999573,0.00854492,-0.0261841,-2.98644,-1.0233,178.322,0,0,0.492188,-0.0078125,0,0,335,,,,0
2017/01/13,14:15:13,73,537,0.0144043,-0.999573,0.00842285,-0.0256958,-2.93064,-1.00847,178.323,0,0,0.492188,-0.0078125,0,0,335,,,,0
2017/01/13,14:15:13,73,569,0.0144043,-0.999573,0.00842285,-0.0256958,-2.93064,-1.00847,178.323,0,0,0.492188,-0.0078125,0,0,335,,,,0
2017/01/13,14:15:13,73,673,0.0144043,-0.999573,0.00811768,-0.0253296,-2.88914,-0.972855,178.324,0,0,0.492188,-0.0078125,0,0,335,,,,0
2017/01/13,14:15:13,73,674,0.0144043,-0.999573,0.00811768,-0.0253296,-2.88914,-0.972855,178.324,0,0,0.492188,-0.0078125,0,0,335,,,,0
2017/01/13,14:15:13,73,682,0.0145264,-0.999573,0.00787354,-0.0250854,-2.86144,-0.944794,178.311,0,0,0.492188,-0.0078125,0,0,336,,,,0
2017/01/13,14:15:13,73,683,0.0146484,-0.999573,0.00738525,-0.0251465,-2.86915,-0.889252,178.299,0,0,0.492188,-0.0078125,0,0,335,,,,0
2017/01/13,14:15:13,73,684,0.0146484,-0.999573,0.00738525,-0.0251465,-2.86915,-0.889252,178.299,-0.0078125,0,0.5,-0.0078125,-0.0078125,0,335,,,,0
2017/01/13,14:15:13,73,719,0.0150146,-0.999573,0.00750732,-0.0258179,-2.94563,-0.905472,178.256,-0.0078125,0,0.507812,-0.0078125,-0.0078125,0,335,,,,0
2017/01/13,14:15:13,73,753,0.0150146,-0.999573,0.00750732,-0.0258179,-2.94563,-0.905472,178.256,-0.046875,0.015625,0.554688,-0.015625,-0.015625,-0.0078125,335,,,,0
2017/01/13,14:15:13,73,769,0.0188599,-0.99884,0.0158691,-0.0415649,-4.72854,-1.91302,177.758,-0.0078125,-0.0078125,0.632812,-0.046875,-0.015625,-0.0078125,335,,,,0
2017/01/13,14:15:13,73,820,0.0188599,-0.99884,0.0158691,-0.0415649,-4.72854,-1.91302,177.758,0.015625,-0.0234375,0.570312,-0.0625,-0.0078125,-0.0078125,336,,,,0
2017/01/13,14:15:13,73,821,0.0219116,-0.995361,0.0212402,-0.0917358,-10.4682,-2.69864,177.231,0.0078125,-0.046875,0.59375,-0.0703125,-0.0078125,-0.0078125,336,,,,0
2017/01/13,14:15:13,73,870,0.0219116,-0.995361,0.0212402,-0.0917358,-10.4682,-2.69864,177.231,0,-0.0859375,0.570312,-0.078125,-0.0078125,-0.0078125,336,,,,0
2017/01/13,14:15:13,73,871,0.0255737,-0.987183,0.0197144,-0.156494,-17.9368,-2.82707,176.586,-0.0078125,-0.109375,0.546875,-0.0859375,0,-0.0078125,337,,,,0
2017/01/13,14:15:13,73,902,0.0255737,-0.987183,0.0197144,-0.156494,-17.9368,-2.82707,176.586,0,-0.132812,0.539062,-0.0859375,0,-0.0078125,338,,,,0
2017/01/13,14:15:13,73,950,0.0324707,-0.974426,0.0143433,-0.221924,-25.5669,-2.69174,175.572,0.0078125,-0.164062,0.523438,-0.0859375,0,-0.0078125,338,,,,0
2017/01/13,14:15:13,73,982,0.0324707,-0.974426,0.0143433,-0.221924,-25.5669,-2.69174,175.572,0.03125,-0.195312,0.523438,-0.0859375,0,-0.0078125,339,,,,0
2017/01/13,14:15:14,74,3,0.0388794,-0.956177,0.00744629,-0.290283,-33.6794,-2.53503,174.576,0.03125,-0.234375,0.578125,-0.09375,0,-0.0078125,340,,,,0
2017/01/13,14:15:14,74,19,0.0388794,-0.956177,0.00744629,-0.290283,-33.6794,-2.53503,174.576,-0.0078125,-0.257812,0.625,-0.09375,0,0,341,,,,0
2017/01/13,14:15:14,74,36,0.0423584,-0.932129,-0.00256348,-0.35968,-42.1253,-1.98502,174.032,-0.03125,-0.242188,0.609375,-0.101562,0.0078125,-0.0078125,342,,,,0
2017/01/13,14:15:14,74,51,0.0423584,-0.932129,-0.00256348,-0.35968,-42.1253,-1.98502,174.032,-0.09375,-0.242188,0.5625,-0.109375,0.0078125,-0.0078125,343,,,,0
2017/01/13,14:15:14,74,199,0.0525513,-0.897888,-0.0180664,-0.436768,-51.8351,-1.24815,172.694,-0.0859375,-0.203125,0.453125,-0.117188,0.015625,-0.015625,344,,,,0
2017/01/13,14:15:14,74,200,0.0525513,-0.897888,-0.0180664,-0.436768,-51.8351,-1.24815,172.694,-0.117188,0.148438,0.3125,-0.117188,0.0234375,-0.03125,345,,,,0
2017/01/13,14:15:14,74,201,0.0828857,-0.866333,-0.0375977,-0.491211,-59.0189,-1.81216,168.044,-0.03125,0.25,0.671875,-0.015625,0.0390625,-0.0390625,346,,,,0
2017/01/13,14:15:14,74,202,0.0828857,-0.866333,-0.0375977,-0.491211,-59.0189,-1.81216,168.044,0.109375,0.195312,0.46875,0.03125,0.03125,-0.03125,347,,,,0
2017/01/13,14:15:14,74,200,0.113586,-0.896484,-0.0280151,-0.42749,-50.6097,-4.23558,163.555,0.0859375,-0.140625,0.265625,0.0703125,-0.0234375,-0.015625,348,,,,0
2017/01/13,14:15:14,74,201,0.113586,-0.896484,-0.0280151,-0.42749,-50.6097,-4.23558,163.555,-0.03125,-0.109375,0.296875,0.0546875,-0.0234375,-0.015625,350,,,,0
2017/01/13,14:15:14,74,232,0.11676,-0.919006,-0.00384521,-0.376648,-43.8825,-6.44254,162.921,-0.046875,-0.0234375,0.351562,0.046875,-0.015625,-0.015625,351,,,,0
2017/01/13,14:15:14,74,233,0.11676,-0.919006,-0.00384521,-0.376648,-43.8825,-6.44254,162.921,-0.046875,0.0078125,0.40625,0.0625,-0.0078125,-0.0078125,353,,,,0
2017/01/13,14:15:14,74,268,0.120728,-0.9422,0.003479,-0.312622,-36.034,-5.82219,163.502,-0.0625,0,0.4375,0.078125,0,0,354,,,,0
2017/01/13,14:15:14,74,303,0.120728,-0.9422,0.003479,-0.312622,-36.034,-5.82219,163.502,-0.0703125,-0.0390625,0.445312,0.0859375,0,0,355,,,,0
2017/01/13,14:15:14,74,335,0.114807,-0.966431,0.00531006,-0.229858,-26.2996,-4.03227,165.508,-0.101562,-0.0625,0.476562,0.0859375,0,0.0078125,355,,,,0
2017/01/13,14:15:14,74,352,0.114807,-0.966431,0.00531006,-0.229858,-26.2996,-4.03227,165.508,-0.101562,-0.0390625,0.53125,0.0859375,0.0078125,0.015625,355,,,,0
2017/01/13,14:15:14,74,385,0.102722,-0.984131,-0.00408936,-0.144836,-16.6136,-1.29793,167.893,-0.09375,-0.0390625,0.609375,0.0859375,0.015625,0.015625,354,,,,0
2017/01/13,14:15:14,74,418,0.102722,-0.984131,-0.00408936,-0.144836,-16.6136,-1.29793,167.893,-0.078125,-0.078125,0.695312,0.09375,0.015625,0.0234375,353,,,,0
2017/01/13,14:15:14,74,435,0.0839233,-0.994629,-0.0193481,-0.0576172,-6.76878,1.66292,170.452,-0.0625,-0.15625,0.734375,0.09375,0.015625,0.0234375,351,,,,0
2017/01/13,14:15:14,74,452,0.0839233,-0.994629,-0.0193481,-0.0576172,-6.76878,1.66292,170.452,-0.078125,-0.242188,0.734375,0.078125,0.0078125,0.0234375,349,,,,0
2017/01/13,14:15:14,74,486,0.0635986,-0.997498,-0.0304565,0.00830078,0.726875,3.54422,172.681,-0.125,-0.296875,0.75,0.0625,0.015625,0.0234375,347,,,,0
2017/01/13,14:15:14,74,502,0.0635986,-0.997498,-0.0304565,0.00830078,0.726875,3.54422,172.681,-0.25,-0.234375,0.90625,0.0546875,0.03125,0.015625,345,,,,0
2017/01/13,14:15:14,74,536,0.050293,-0.994812,-0.0646362,0.0603638,6.52287,7.79047,173.767,-0.0625,-0.25,0.835938,0.101562,0.046875,0.015625,342,,,,0
2017/01/13,14:15:14,74,569,0.050293,-0.994812,-0.0646362,0.0603638,6.52287,7.79047,173.767,-0.0078125,-0.539062,0.570312,0.109375,0.0078125,0.0234375,338,,,,0
2017/01/13,14:15:14,74,570,0.0383911,-0.987427,-0.0738525,0.134399,15.0551,9.30661,174.314,-0.09375,-0.570312,0.421875,0.0625,0.0078125,0.015625,333,,,,0
2017/01/13,14:15:14,74,600,0.0383911,-0.987427,-0.0738525,0.134399,15.0551,9.30661,174.314,0.0078125,-0.59375,0.390625,0.03125,0.0234375,-0.0078125,327,,,,0
2017/01/13,14:15:14,74,653,0.0403442,-0.984253,-0.0916138,0.145813,16.2388,11.5418,173.654,0.140625,-0.632812,0.3125,0.0234375,0.015625,-0.015625,320,,,,0
2017/01/13,14:15:14,74,719,0.0403442,-0.984253,-0.0916138,0.145813,16.2388,11.5418,173.654,0.164062,-0.617188,0.28125,0,0,-0.0078125,313,,,,0
2017/01/13,14:15:14,74,738,0.0482178,-0.986511,-0.0916138,0.126831,13.9695,11.4707,172.994,0.046875,-0.460938,0.34375,-0.0234375,-0.015625,0,305,,,,0
