date,time,,millisec,quaternion.w,quaternion.x,quaternion.y,quaternion.z,angle.x,angle.y,angle.z,acc.x,acc.y,acc.z,gyro.x,gyro.y,gyro.z,compass,power
2017/01/13,14:17:36,36,719,-0.458069,0.888916,-0.00384521,0.0020752,-0.00954562,-0.50061,125.475,0,0,0.492188,-0.0078125,0,0,223,0
2017/01/13,14:17:36,36,719,-0.458069,0.888916,-0.00384521,0.0020752,-0.00954562,-0.50061,125.475,0,0,0.492188,-0.0078125,0,0,223,0
2017/01/13,14:17:36,36,720,-0.458069,0.888855,-0.00360107,0.00268555,-0.0845138,-0.507812,125.471,0,0,0.492188,-0.0078125,0,0,223,0
2017/01/13,14:17:36,36,721,-0.458069,0.888855,-0.00360107,0.00268555,-0.0845138,-0.507812,125.471,0,0,0.492188,-0.0078125,0,0,223,0
2017/01/13,14:17:36,36,742,-0.458069,0.888855,-0.00341797,0.00317383,-0.143859,-0.514786,125.471,0,0,0.492188,-0.0078125,0,0,223,0
2017/01/13,14:17:36,36,775,-0.458069,0.888855,-0.00341797,0.00317383,-0.143859,-0.514786,125.471,0,0,0.492188,-0.0078125,0,0,223,0
2017/01/13,14:17:36,36,792,-0.45813,0.888855,-0.00323486,0.00366211,-0.203182,-0.521774,125.464,0,0,0.492188,-0.0078125,0,0,223,0
2017/01/13,14:17:36,36,825,-0.45813,0.888855,-0.00323486,0.00366211,-0.203182,-0.521774,125.464,0,0,0.484375,-0.0078125,0,0,223,0
2017/01/13,14:17:36,36,859,-0.45813,0.888855,-0.00299072,0.00421143,-0.271951,-0.525742,125.464,0,0,0.492188,-0.0078125,0,0,223,0
2017/01/13,14:17:36,36,875,-0.45813,0.888855,-0.00299072,0.00421143,-0.271951,-0.525742,125.464,0,0,0.492188,-0.0078125,0,0,223,0
2017/01/13,14:17:36,36,888,-0.458191,0.888855,-0.00280762,0.00463867,-0.325062,-0.529526,125.458,0,0,0.492188,-0.0078125,0,0,224,0
2017/01/13,14:17:36,36,925,-0.458191,0.888855,-0.00280762,0.00463867,-0.325062,-0.529526,125.458,0,0,0.492188,-0.0078125,0,0,224,0
2017/01/13,14:17:36,36,941,-0.458191,0.888794,-0.00256348,0.00506592,-0.381363,-0.52713,125.454,0,0,0.484375,-0.0078125,0,0,224,0
2017/01/13,14:17:36,36,975,-0.458191,0.888794,-0.00256348,0.00506592,-0.381363,-0.52713,125.454,0,0,0.492188,-0.0078125,0,0,224,0
2017/01/13,14:17:37,37,8,-0.458252,0.888794,-0.00238037,0.0055542,-0.440692,-0.534134,125.448,0,0,0.492188,-0.0078125,0,0,223,0
2017/01/13,14:17:37,37,26,-0.458252,0.888794,-0.00238037,0.0055542,-0.440692,-0.534134,125.448,0,0,0.492188,-0.0078125,0,0,224,0
2017/01/13,14:17:37,37,42,-0.458252,0.888794,-0.00219727,0.00598145,-0.493824,-0.537918,125.447,0,0,0.492188,-0.0078125,0,0,224,0
2017/01/13,14:17:37,37,76,-0.458252,0.888794,-0.00219727,0.00598145,-0.493824,-0.537918,125.447,0,0,0.492188,-0.0078125,0,0,223,0
2017/01/13,14:17:37,37,92,-0.458252,0.888794,-0.0020752,0.00628662,-0.531317,-0.541504,125.447,0,0,0.492188,-0.0078125,0,0,223,0
2017/01/13,14:17:37,37,142,-0.458252,0.888794,-0.0020752,0.00628662,-0.531317,-0.541504,125.447,0,0,0.492188,-0.0078125,0,0,223,0
2017/01/13,14:17:37,37,160,-0.458252,0.888794,-0.00195312,0.00665283,-0.575027,-0.548309,125.447,0,0,0.492188,-0.0078125,0,0,223,0
2017/01/13,14:17:37,37,175,-0.458252,0.888794,-0.00195312,0.00665283,-0.575027,-0.548309,125.447,0,0,0.492188,-0.0078125,0,0,223,0
2017/01/13,14:17:37,37,192,-0.458252,0.888794,-0.00177002,0.00695801,-0.615726,-0.545685,125.447,0,0,0.492188,-0.0078125,0,0,223,0
2017/01/13,14:17:37,37,241,-0.458252,0.888794,-0.00177002,0.00695801,-0.615726,-0.545685,125.447,0,0,0.492188,-0.0078125,0,0,223,0
2017/01/13,14:17:37,37,242,-0.458252,0.888794,-0.00164795,0.00732422,-0.659437,-0.55249,125.447,0,0,0.484375,-0.0078125,0,0,222,0
2017/01/13,14:17:37,37,292,-0.458252,0.888794,-0.00164795,0.00732422,-0.659437,-0.55249,125.447,0,0,0.492188,-0.0078125,0,0,223,0
2017/01/13,14:17:37,37,309,-0.458252,0.888794,-0.00164795,0.00762939,-0.690521,-0.568512,125.446,0,0,0.484375,-0.0078125,0,0,223,0
2017/01/13,14:17:37,37,326,-0.458252,0.888794,-0.00164795,0.00762939,-0.690521,-0.568512,125.446,0,0,0.492188,-0.0078125,0,0,223,0
2017/01/13,14:17:37,37,342,-0.458252,0.888794,-0.00152588,0.00793457,-0.728015,-0.572113,125.446,0,0,0.484375,-0.0078125,0,0,223,0
2017/01/13,14:17:37,37,377,-0.458252,0.888794,-0.00152588,0.00793457,-0.728015,-0.572113,125.446,0,0,0.492188,-0.0078125,0,0,223,0
2017/01/13,14:17:37,37,392,-0.458252,0.888794,-0.00140381,0.00817871,-0.759293,-0.572495,125.446,0,0,0.484375,-0.0078125,0,0,223,0
2017/01/13,14:17:37,37,425,-0.458252,0.888794,-0.00140381,0.00817871,-0.759293,-0.572495,125.446,0,0,0.492188,-0.0078125,0,0,223,0
2017/01/13,14:17:37,37,460,-0.458191,0.888794,-0.00140381,0.00842285,-0.784171,-0.585297,125.452,0,0,0.492188,-0.0078125,0,0,223,0
2017/01/13,14:17:37,37,475,-0.458191,0.888794,-0.00140381,0.00842285,-0.784171,-0.585297,125.452,0,0,0.484375,-0.0078125,0,0,223,0
2017/01/13,14:17:37,37,492,-0.45813,0.888855,-0.00140381,0.00854492,-0.796674,-0.591629,125.461,0,0,0.492188,-0.0078125,0,0,222,0
2017/01/13,14:17:37,37,542,-0.45813,0.888855,-0.00140381,0.00854492,-0.796674,-0.591629,125.461,0,0,0.492188,-0.0078125,0,0,222,0
2017/01/13,14:17:37,37,543,-0.458069,0.888855,-0.00134277,0.00860596,-0.806105,-0.588593,125.467,0,0,0.492188,-0.0078125,0,0,222,0
2017/01/13,14:17:37,37,593,-0.458069,0.888855,-0.00134277,0.00860596,-0.806105,-0.588593,125.467,0,0,0.492188,-0.0078125,0,0,223,0
2017/01/13,14:17:37,37,609,-0.458069,0.888855,-0.00128174,0.00891113,-0.840397,-0.598404,125.467,0,0,0.492188,-0.0078125,0,0,223,0
2017/01/13,14:17:37,37,641,-0.458069,0.888855,-0.00128174,0.00891113,-0.840397,-0.598404,125.467,0,0,0.492188,-0.0078125,0,0,223,0
2017/01/13,14:17:37,37,642,-0.458069,0.888855,-0.0012207,0.00909424,-0.862253,-0.601791,125.467,0,0,0.492188,-0.0078125,0,0,223,0
2017/01/13,14:17:37,37,676,-0.458069,0.888855,-0.0012207,0.00909424,-0.862253,-0.601791,125.467,0,0,0.492188,-0.0078125,0,0,224,0
2017/01/13,14:17:37,37,692,-0.458069,0.888855,-0.00109863,0.00933838,-0.893531,-0.602173,125.467,0,0,0.492188,-0.0078125,0,0,224,0
2017/01/13,14:17:37,37,831,-0.458069,0.888855,-0.00109863,0.00933838,-0.893531,-0.602173,125.467,0,0,0.484375,-0.0078125,0,0,224,0
2017/01/13,14:17:37,37,832,-0.45813,0.888855,-0.0010376,0.00958252,-0.921598,-0.60881,125.461,0,0,0.492188,-0.0078125,0,0,224,0
2017/01/13,14:17:37,37,833,-0.45813,0.888855,-0.0010376,0.00958252,-0.921598,-0.60881,125.461,0,0,0.492188,-0.0078125,0,0,224,0
2017/01/13,14:17:37,37,840,-0.45813,0.888794,-0.000976562,0.00982666,-0.949605,-0.615479,125.457,0,0,0.492188,-0.0078125,0,0,224,0
2017/01/13,14:17:37,37,841,-0.45813,0.888794,-0.000976562,0.00982666,-0.949605,-0.615479,125.457,0,0,0.484375,-0.0078125,-0.0078125,0,224,0
2017/01/13,14:17:37,37,859,-0.45813,0.888794,-0.000915527,0.0100708,-0.977678,-0.62207,125.457,0,0,0.492188,-0.0078125,0,0,224,0
2017/01/13,14:17:37,37,875,-0.45813,0.888794,-0.000915527,0.0100708,-0.977678,-0.62207,125.457,0,0,0.492188,-0.0078125,0,0,223,0
2017/01/13,14:17:37,37,909,-0.458191,0.888794,-0.000854492,0.010376,-1.01196,-0.631927,125.45,0,0,0.492188,-0.0078125,0,0,224,0
2017/01/13,14:17:37,37,925,-0.458191,0.888794,-0.000854492,0.010376,-1.01196,-0.631927,125.45,0,0,0.484375,-0.0078125,0,0,223,0
2017/01/13,14:17:37,37,942,-0.458252,0.888733,-0.000732422,0.0106201,-1.04316,-0.632416,125.441,0,0,0.492188,-0.0078125,0,0,223,0
2017/01/13,14:17:37,37,975,-0.458252,0.888733,-0.000732422,0.0106201,-1.04316,-0.632416,125.441,0,0,0.492188,-0.0078125,0,0,223,0
2017/01/13,14:17:37,37,992,-0.458313,0.888733,-0.000610352,0.0108643,-1.07444,-0.632858,125.434,0,0,0.492188,-0.0078125,0,0,223,0
2017/01/13,14:17:38,38,27,-0.458313,0.888733,-0.000610352,0.0108643,-1.07444,-0.632858,125.434,0,0,0.484375,-0.0078125,-0.0078125,0,223,0
2017/01/13,14:17:38,38,59,-0.458374,0.888672,-0.000488281,0.0112305,-1.11807,-0.639771,125.425,0,0,0.484375,-0.0078125,-0.0078125,0,222,0
2017/01/13,14:17:38,38,75,-0.458374,0.888672,-0.000488281,0.0112305,-1.11807,-0.639771,125.425,0,0,0.492188,-0.0078125,-0.0078125,0,223,0
2017/01/13,14:17:38,38,92,-0.458435,0.888611,-0.000427246,0.0116577,-1.16471,-0.656113,125.415,0,0,0.484375,-0.0078125,-0.0078125,0,223,0
2017/01/13,14:17:38,38,125,-0.458435,0.888611,-0.000427246,0.0116577,-1.16471,-0.656113,125.415,0,0,0.492188,-0.0078125,0,0,223,0
2017/01/13,14:17:38,38,159,-0.458496,0.888611,-0.000366211,0.0119019,-1.19278,-0.662781,125.408,0,0,0.492188,-0.0078125,0,0,223,0
2017/01/13,14:17:38,38,175,-0.458496,0.888611,-0.000366211,0.0119019,-1.19278,-0.662781,125.408,0,0,0.484375,-0.0078125,-0.0078125,0,223,0
2017/01/13,14:17:38,38,210,-0.458496,0.888611,-0.000244141,0.012146,-1.22406,-0.663177,125.408,0,0,0.492188,-0.0078125,0,0,223,0
2017/01/13,14:17:38,38,226,-0.458496,0.888611,-0.000244141,0.012146,-1.22406,-0.663177,125.408,0,0,0.484375,-0.0078125,0,0,223,0
2017/01/13,14:17:38,38,258,-0.458496,0.888611,-0.000244141,0.0123291,-1.24271,-0.672791,125.408,0,0,0.484375,-0.0078125,0,0,223,0
2017/01/13,14:17:38,38,309,-0.458496,0.888611,-0.000244141,0.0123291,-1.24271,-0.672791,125.408,0,0,0.484375,-0.0078125,0,0,223,0
2017/01/13,14:17:38,38,310,-0.458496,0.888611,-0.00012207,0.0125122,-1.26777,-0.669998,125.408,0,0,0.484375,-0.0078125,0,0,223,0
2017/01/13,14:17:38,38,325,-0.458496,0.888611,-0.00012207,0.0125122,-1.26777,-0.669998,125.408,0,0,0.492188,-0.0078125,0,0,222,0
2017/01/13,14:17:38,38,375,-0.458496,0.888611,-6.10352E-05,0.0125732,-1.2772,-0.666992,125.408,0,0,0.492188,-0.0078125,0,0,222,0
2017/01/13,14:17:38,38,376,-0.458496,0.888611,-6.10352E-05,0.0125732,-1.2772,-0.666992,125.408,0,0,0.492188,-0.0078125,0,0,223,0
2017/01/13,14:17:38,38,392,-0.458496,0.888611,-6.10352E-05,0.0125732,-1.2772,-0.666992,125.408,0,0,0.492188,-0.0078125,0,0,222,0
2017/01/13,14:17:38,38,425,-0.458496,0.888611,-6.10352E-05,0.0125732,-1.2772,-0.666992,125.408,0,0,0.484375,-0.0078125,0,0,222,0
2017/01/13,14:17:38,38,441,-0.458496,0.888611,0,0.0126343,-1.28662,-0.663986,125.408,0,0,0.492188,-0.0078125,0,0,222,0
2017/01/13,14:17:38,38,476,-0.458496,0.888611,0,0.0126343,-1.28662,-0.663986,125.408,0,0,0.492188,-0.0078125,0,0,222,0
2017/01/13,14:17:38,38,525,-0.458435,0.888611,0,0.0126953,-1.29284,-0.667145,125.414,0,0,0.492188,-0.0078125,0,0,222,0
2017/01/13,14:17:38,38,526,-0.458435,0.888611,0,0.0126953,-1.29284,-0.667145,125.414,0,0,0.492188,-0.0078125,0,0,222,0
2017/01/13,14:17:38,38,542,-0.458435,0.888611,6.10352E-05,0.0127563,-1.30226,-0.664124,125.414,0,0,0.484375,-0.0078125,0,0,223,0
2017/01/13,14:17:38,38,576,-0.458435,0.888611,6.10352E-05,0.0127563,-1.30226,-0.664124,125.414,0,0,0.492188,-0.0078125,0,0,223,0
2017/01/13,14:17:38,38,593,-0.458435,0.888611,0.00012207,0.0128174,-1.31169,-0.661118,125.414,0,0,0.492188,-0.0078125,0,0,223,0
2017/01/13,14:17:38,38,626,-0.458435,0.888611,0.00012207,0.0128174,-1.31169,-0.661118,125.414,0,0,0.484375,-0.0078125,0,0,224,0
2017/01/13,14:17:38,38,658,-0.458435,0.888611,0.000183105,0.0129395,-1.32733,-0.661316,125.414,0,0,0.484375,-0.0078125,0,0,224,0
2017/01/13,14:17:38,38,684,-0.458435,0.888611,0.000183105,0.0129395,-1.32733,-0.661316,125.414,0,0,0.484375,-0.0078125,0,0,224,0
2017/01/13,14:17:38,38,705,-0.458496,0.888611,0.000244141,0.0130615,-1.34297,-0.66156,125.408,0,0,0.492188,-0.0078125,0,0,223,0
2017/01/13,14:17:38,38,725,-0.458496,0.888611,0.000244141,0.0130615,-1.34297,-0.66156,125.408,0,0,0.492188,-0.0078125,0,0,223,0
2017/01/13,14:17:38,38,742,-0.458496,0.888611,0.000305176,0.0131226,-1.35239,-0.658569,125.408,0,0,0.492188,-0.0078125,0,0,223,0
2017/01/13,14:17:38,38,775,-0.458496,0.888611,0.000305176,0.0131226,-1.35239,-0.658569,125.408,0,0,0.492188,-0.0078125,0,0,223,0
2017/01/13,14:17:38,38,809,-0.458435,0.888611,0.000305176,0.0131836,-1.35861,-0.661713,125.414,0,0,0.492188,-0.0078125,0,0,223,0
2017/01/13,14:17:38,38,841,-0.458435,0.888611,0.000305176,0.0131836,-1.35861,-0.661713,125.414,0,0,0.492188,-0.0078125,0,0,224,0
2017/01/13,14:17:38,38,912,-0.458435,0.888611,0.000366211,0.0132446,-1.36803,-0.658707,125.414,0,0,0.492188,-0.0078125,0,0,223,0
2017/01/13,14:17:38,38,925,-0.458435,0.888611,0.000366211,0.0132446,-1.36803,-0.658707,125.414,0,0,0.492188,-0.0078125,-0.0078125,0,224,0
2017/01/13,14:17:38,38,926,-0.458435,0.888611,0.000366211,0.0133057,-1.37425,-0.661926,125.414,0,0,0.492188,-0.0078125,0,0,224,0
2017/01/13,14:17:38,38,927,-0.458435,0.888611,0.000366211,0.0133057,-1.37425,-0.661926,125.414,0,0,0.492188,-0.0078125,0,0,224,0
2017/01/13,14:17:38,38,958,-0.458435,0.888611,0.000366211,0.0133667,-1.38047,-0.665131,125.414,0,0,0.492188,-0.0078125,0,0,224,0
2017/01/13,14:17:38,38,976,-0.458435,0.888611,0.000366211,0.0133667,-1.38047,-0.665131,125.414,0,0,0.492188,-0.0078125,0,0,224,0
2017/01/13,14:17:39,39,10,-0.458435,0.888611,0.000427246,0.0134888,-1.39611,-0.665329,125.413,0,0,0.492188,-0.0078125,0,0,223,0
2017/01/13,14:17:39,39,25,-0.458435,0.888611,0.000427246,0.0134888,-1.39611,-0.665329,125.413,0,0,0.492188,-0.0078125,0,0,223,0
2017/01/13,14:17:39,39,41,-0.458435,0.888611,0.000427246,0.0134888,-1.39611,-0.665329,125.413,0,0,0.492188,-0.0078125,0,0,224,0
2017/01/13,14:17:39,39,76,-0.458435,0.888611,0.000427246,0.0134888,-1.39611,-0.665329,125.413,0,0,0.492188,-0.0078125,0,0,224,0
2017/01/13,14:17:39,39,109,-0.458435,0.888611,0.000488281,0.0135498,-1.40553,-0.662323,125.413,0,0,0.492188,-0.0078125,0,0,224,0
2017/01/13,14:17:39,39,110,-0.458435,0.888611,0.000488281,0.0135498,-1.40553,-0.662323,125.413,0,0,0.492188,-0.0078125,0,0,224,0
2017/01/13,14:17:39,39,142,-0.458435,0.888611,0.000488281,0.0136108,-1.41175,-0.665527,125.413,0,0,0.492188,-0.0078125,0,0,223,0
2017/01/13,14:17:39,39,177,-0.458435,0.888611,0.000488281,0.0136108,-1.41175,-0.665527,125.413,0,0,0.492188,-0.0078125,0,0,224,0
2017/01/13,14:17:39,39,209,-0.458435,0.888611,0.000549316,0.0136719,-1.42117,-0.662521,125.413,0,0,0.492188,-0.0078125,0,0,223,0
2017/01/13,14:17:39,39,225,-0.458435,0.888611,0.000549316,0.0136719,-1.42117,-0.662521,125.413,0,0,0.492188,-0.0078125,0,0,224,0
2017/01/13,14:17:39,39,259,-0.458435,0.888611,0.000549316,0.0137329,-1.42739,-0.665741,125.413,0,0,0.492188,-0.0078125,0,0,224,0
2017/01/13,14:17:39,39,278,-0.458435,0.888611,0.000549316,0.0137329,-1.42739,-0.665741,125.413,0,0,0.492188,-0.0078125,-0.0078125,0,224,0
2017/01/13,14:17:39,39,293,-0.458435,0.888611,0.000549316,0.013855,-1.43982,-0.672134,125.413,0,0,0.492188,-0.0078125,0,0,224,0
2017/01/13,14:17:39,39,325,-0.458435,0.888611,0.000549316,0.013855,-1.43982,-0.672134,125.413,0,0,0.492188,-0.0078125,0,0,223,0
2017/01/13,14:17:39,39,359,-0.458435,0.888611,0.000549316,0.013916,-1.44604,-0.675354,125.413,0,0,0.484375,-0.0078125,0,0,224,0
2017/01/13,14:17:39,39,389,-0.458435,0.888611,0.000549316,0.013916,-1.44604,-0.675354,125.413,0,0,0.492188,-0.0078125,0,0,224,0
2017/01/13,14:17:39,39,410,-0.458435,0.888611,0.000610352,0.0139771,-1.45547,-0.672348,125.413,0,0,0.492188,-0.0078125,0,0,224,0
2017/01/13,14:17:39,39,425,-0.458435,0.888611,0.000610352,0.0139771,-1.45547,-0.672348,125.413,0,0,0.492188,-0.0078125,0,0,224,0
2017/01/13,14:17:39,39,442,-0.458435,0.888611,0.000610352,0.0140381,-1.46168,-0.675552,125.413,0,0,0.492188,-0.0078125,0,0,223,0
2017/01/13,14:17:39,39,492,-0.458435,0.888611,0.000610352,0.0140381,-1.46168,-0.675552,125.413,0,0,0.484375,-0.0078125,-0.0078125,0,223,0
2017/01/13,14:17:39,39,509,-0.458435,0.888611,0.000610352,0.0141602,-1.47412,-0.681961,125.413,0,0,0.492188,-0.0078125,-0.0078125,0,223,0
2017/01/13,14:17:39,39,526,-0.458435,0.888611,0.000610352,0.0141602,-1.47412,-0.681961,125.413,0,0,0.492188,-0.0078125,0,0,223,0
2017/01/13,14:17:39,39,558,-0.458435,0.888611,0.000610352,0.0142212,-1.48033,-0.685165,125.413,0,0,0.492188,-0.0078125,0,0,223,0
2017/01/13,14:17:39,39,592,-0.458435,0.888611,0.000610352,0.0142212,-1.48033,-0.685165,125.413,0,0,0.492188,-0.0078125,0,0,223,0
2017/01/13,14:17:39,39,593,-0.458435,0.888611,0.000610352,0.0142822,-1.48655,-0.688385,125.413,0,0,0.492188,-0.0078125,0,0,223,0
2017/01/13,14:17:39,39,626,-0.458435,0.888611,0.000610352,0.0142822,-1.48655,-0.688385,125.413,0,0,0.492188,-0.0078125,0,0,223,0
2017/01/13,14:17:39,39,660,-0.458435,0.888611,0.000610352,0.0143433,-1.49277,-0.691589,125.413,0,0,0.484375,-0.0078125,0,0,224,0
2017/01/13,14:17:39,39,675,-0.458435,0.888611,0.000610352,0.0143433,-1.49277,-0.691589,125.413,0,0,0.492188,-0.0078125,0,0,223,0
2017/01/13,14:17:39,39,709,-0.458435,0.888611,0.000610352,0.0143433,-1.49277,-0.691589,125.413,0,0,0.492188,-0.0078125,0,0,224,0
2017/01/13,14:17:39,39,725,-0.458435,0.888611,0.000610352,0.0143433,-1.49277,-0.691589,125.413,0,0,0.492188,-0.0078125,0,0,224,0
2017/01/13,14:17:39,39,742,-0.458435,0.888611,0.000671387,0.0144043,-1.50219,-0.688583,125.412,0,0,0.492188,-0.0078125,0,0,224,0
2017/01/13,14:17:39,39,776,-0.458435,0.888611,0.000671387,0.0144043,-1.50219,-0.688583,125.412,0,0,0.492188,-0.0078125,0,0,223,0
2017/01/13,14:17:39,39,808,-0.458435,0.888611,0.000671387,0.0144043,-1.50219,-0.688583,125.412,0,0,0.492188,-0.0078125,0,0,223,0
2017/01/13,14:17:39,39,825,-0.458435,0.888611,0.000671387,0.0144043,-1.50219,-0.688583,125.412,0,0,0.484375,-0.0078125,0,0,223,0
2017/01/13,14:17:39,39,859,-0.458435,0.888611,0.000671387,0.0144653,-1.50841,-0.691803,125.412,0,0,0.492188,-0.0078125,0,0,223,0
2017/01/13,14:17:39,39,890,-0.458435,0.888611,0.000671387,0.0144653,-1.50841,-0.691803,125.412,0,0,0.492188,-0.0078125,0,0,223,0
2017/01/13,14:17:39,39,891,-0.458435,0.888611,0.000671387,0.0145264,-1.51463,-0.695007,125.412,0,0,0.492188,-0.0078125,-0.0078125,0,223,0
2017/01/13,14:17:39,39,926,-0.458435,0.888611,0.000671387,0.0145264,-1.51463,-0.695007,125.412,0,0,0.492188,-0.0078125,0,0,223,0
2017/01/13,14:17:39,39,974,-0.458435,0.888611,0.000671387,0.0145264,-1.51463,-0.695007,125.412,0,0,0.492188,-0.0078125,0,0,223,0
2017/01/13,14:17:40,40,42,-0.458435,0.888611,0.000671387,0.0145264,-1.51463,-0.695007,125.412,0,0,0.492188,-0.0078125,0,0,223,0
2017/01/13,14:17:40,40,59,-0.458435,0.888611,0.000671387,0.0145874,-1.52084,-0.698212,125.412,0,0,0.492188,-0.0078125,0,0,223,0
2017/01/13,14:17:40,40,60,-0.458435,0.888611,0.000671387,0.0145874,-1.52084,-0.698212,125.412,0,0,0.492188,-0.0078125,0,0,223,0
2017/01/13,14:17:40,40,61,-0.458435,0.888611,0.000671387,0.0145874,-1.52084,-0.698212,125.412,0,0,0.492188,-0.0078125,0,0,223,0
2017/01/13,14:17:40,40,75,-0.458435,0.888611,0.000671387,0.0145874,-1.52084,-0.698212,125.412,0,0,0.492188,-0.0078125,0,0,223,0
2017/01/13,14:17:40,40,109,-0.458435,0.888611,0.000732422,0.0146484,-1.53027,-0.695206,125.412,0,0,0.492188,-0.0078125,-0.0078125,0,223,0
2017/01/13,14:17:40,40,127,-0.458435,0.888611,0.000732422,0.0146484,-1.53027,-0.695206,125.412,0,0,0.492188,-0.0078125,0,0,223,0
2017/01/13,14:17:40,40,159,-0.458435,0.888611,0.000732422,0.0147095,-1.53649,-0.69841,125.412,0,0,0.492188,-0.0078125,0,0,223,0
2017/01/13,14:17:40,40,209,-0.458435,0.888611,0.000732422,0.0147095,-1.53649,-0.69841,125.412,0,0,0.484375,-0.0078125,0,0,223,0
2017/01/13,14:17:40,40,210,-0.458435,0.888611,0.000732422,0.0147095,-1.53649,-0.69841,125.412,0,0,0.492188,-0.0078125,0,0,223,0
2017/01/13,14:17:40,40,225,-0.458435,0.888611,0.000732422,0.0147095,-1.53649,-0.69841,125.412,0,0,0.492188,-0.0078125,0,0,223,0
2017/01/13,14:17:40,40,267,-0.458435,0.888611,0.000732422,0.0147095,-1.53649,-0.69841,125.412,0,0,0.484375,-0.0078125,0,0,223,0
2017/01/13,14:17:40,40,292,-0.458435,0.888611,0.000732422,0.0147095,-1.53649,-0.69841,125.412,0,0,0.492188,-0.0078125,0,0,223,0
2017/01/13,14:17:40,40,325,-0.458435,0.88855,0.000732422,0.0147095,-1.53638,-0.698486,125.409,0,0,0.492188,-0.0078125,0,0,223,0
2017/01/13,14:17:40,40,326,-0.458435,0.88855,0.000732422,0.0147095,-1.53638,-0.698486,125.409,0,0,0.492188,-0.0078125,0,0,223,0
2017/01/13,14:17:40,40,342,-0.458435,0.88855,0.000732422,0.0147705,-1.5426,-0.701706,125.409,0,0,0.492188,-0.0078125,0,0,223,0
2017/01/13,14:17:40,40,375,-0.458435,0.88855,0.000732422,0.0147705,-1.5426,-0.701706,125.409,0,0,0.484375,-0.0078125,0,0,223,0
2017/01/13,14:17:40,40,442,-0.458435,0.88855,0.000732422,0.0147705,-1.5426,-0.701706,125.409,0,0,0.492188,-0.0078125,0,0,223,0
2017/01/13,14:17:40,40,443,-0.458435,0.88855,0.000732422,0.0147705,-1.5426,-0.701706,125.409,0,0,0.484375,-0.0078125,0,0,223,0
2017/01/13,14:17:40,40,459,-0.458435,0.888611,0.000732422,0.0147705,-1.5427,-0.701614,125.412,0,0,0.492188,-0.0078125,0,0,224,0
2017/01/13,14:17:40,40,476,-0.458435,0.888611,0.000732422,0.0147705,-1.5427,-0.701614,125.412,0,0,0.492188,-0.0078125,0,0,223,0
2017/01/13,14:17:40,40,509,-0.458435,0.88855,0.000732422,0.0147705,-1.5426,-0.701706,125.409,0,0,0.492188,-0.0078125,0,0,223,0
2017/01/13,14:17:40,40,527,-0.458435,0.88855,0.000732422,0.0147705,-1.5426,-0.701706,125.409,0,0,0.492188,-0.0078125,0,0,223,0
2017/01/13,14:17:40,40,559,-0.458435,0.888611,0.000732422,0.0148315,-1.54892,-0.704834,125.412,0,0,0.492188,-0.0078125,0,0,223,0
2017/01/13,14:17:40,40,575,-0.458435,0.888611,0.000732422,0.0148315,-1.54892,-0.704834,125.412,0,0,0.492188,-0.0078125,0,0,223,0
2017/01/13,14:17:40,40,625,-0.458435,0.88855,0.000732422,0.0147705,-1.5426,-0.701706,125.409,0,0,0.492188,-0.0078125,0,0,223,0
2017/01/13,14:17:40,40,626,-0.458435,0.88855,0.000732422,0.0147705,-1.5426,-0.701706,125.409,0,0,0.492188,-0.0078125,0,0,223,0
2017/01/13,14:17:40,40,642,-0.458435,0.88855,0.000793457,0.0148315,-1.55202,-0.6987,125.409,0,0,0.484375,-0.0078125,0,0,223,0
2017/01/13,14:17:40,40,675,-0.458435,0.88855,0.000793457,0.0148315,-1.55202,-0.6987,125.409,0,0,0.492188,-0.0078125,0,0,223,0
2017/01/13,14:17:40,40,725,-0.458435,0.888611,0.000793457,0.0148926,-1.55835,-0.701828,125.412,0,0,0.492188,-0.0078125,-0.0078125,0,223,0
2017/01/13,14:17:40,40,726,-0.458435,0.888611,0.000793457,0.0148926,-1.55835,-0.701828,125.412,0,0,0.484375,-0.0078125,0,0,223,0
2017/01/13,14:17:40,40,760,-0.458435,0.88855,0.000793457,0.0148926,-1.55824,-0.701904,125.409,0,0,0.492188,-0.0078125,0,0,223,0
2017/01/13,14:17:40,40,775,-0.458435,0.88855,0.000793457,0.0148926,-1.55824,-0.701904,125.409,0,0,0.492188,-0.0078125,0,0,223,0
2017/01/13,14:17:40,40,792,-0.458435,0.88855,0.000732422,0.0148926,-1.55503,-0.708115,125.409,0,0,0.492188,-0.0078125,0,0,223,0
2017/01/13,14:17:40,40,826,-0.458435,0.88855,0.000732422,0.0148926,-1.55503,-0.708115,125.409,0,0,0.492188,-0.0078125,-0.0078125,0,222,0
2017/01/13,14:17:40,40,856,-0.458435,0.88855,0.000732422,0.0148926,-1.55503,-0.708115,125.409,0,0,0.484375,-0.0078125,0,0,222,0
2017/01/13,14:17:40,40,875,-0.458435,0.88855,0.000732422,0.0148926,-1.55503,-0.708115,125.409,0,0,0.492188,-0.0078125,0,0,222,0
2017/01/13,14:17:40,40,909,-0.458435,0.88855,0.000732422,0.0148926,-1.55503,-0.708115,125.409,0,0,0.492188,-0.0078125,0,0,223,0
2017/01/13,14:17:40,40,926,-0.458435,0.88855,0.000732422,0.0148926,-1.55503,-0.708115,125.409,0,0,0.492188,-0.0078125,0,0,223,0
2017/01/13,14:17:40,40,942,-0.458435,0.88855,0.000732422,0.0148926,-1.55503,-0.708115,125.409,0,0,0.492188,-0.0078125,0,0,223,0
2017/01/13,14:17:40,40,975,-0.458435,0.88855,0.000732422,0.0148926,-1.55503,-0.708115,125.409,0,0,0.492188,-0.0078125,0,0,223,0
2017/01/13,14:17:41,41,25,-0.458496,0.88855,0.000793457,0.0148926,-1.55825,-0.701965,125.403,0,0,0.492188,-0.0078125,0,0,223,0
2017/01/13,14:17:41,41,42,-0.458496,0.88855,0.000793457,0.0148926,-1.55825,-0.701965,125.403,0,0,0.492188,-0.0078125,-0.0078125,0,223,0
2017/01/13,14:17:41,41,59,-0.458496,0.88855,0.000793457,0.0148926,-1.55825,-0.701965,125.403,0,0,0.484375,-0.0078125,0,0,223,0
2017/01/13,14:17:41,41,76,-0.458496,0.88855,0.000793457,0.0148926,-1.55825,-0.701965,125.403,0,0,0.492188,-0.0078125,0,0,223,0
2017/01/13,14:17:41,41,92,-0.458496,0.88855,0.000793457,0.0148926,-1.55825,-0.701965,125.403,0,0,0.492188,-0.0078125,0,0,224,0
2017/01/13,14:17:41,41,193,-0.458496,0.88855,0.000793457,0.0148926,-1.55825,-0.701965,125.403,0,0,0.492188,-0.0078125,0,0,223,0
2017/01/13,14:17:41,41,205,-0.458496,0.88855,0.000793457,0.0148926,-1.55825,-0.701965,125.403,0,0,0.492188,-0.0078125,0,0,223,0
2017/01/13,14:17:41,41,206,-0.458496,0.88855,0.000793457,0.0148926,-1.55825,-0.701965,125.403,0,0,0.492188,-0.0078125,0,0,223,0
2017/01/13,14:17:41,41,207,-0.458496,0.88855,0.000793457,0.0149536,-1.56446,-0.70517,125.402,0,0,0.492188,-0.0078125,0,0,223,0
2017/01/13,14:17:41,41,244,-0.458496,0.88855,0.000793457,0.0149536,-1.56446,-0.70517,125.402,0,0,0.492188,-0.0078125,-0.0078125,0,223,0
2017/01/13,14:17:41,41,245,-0.458496,0.88855,0.000793457,0.0149536,-1.56446,-0.70517,125.402,0,0,0.492188,-0.0078125,0,0,223,0
2017/01/13,14:17:41,41,275,-0.458496,0.88855,0.000793457,0.0149536,-1.56446,-0.70517,125.402,0,0,0.484375,-0.0078125,-0.0078125,0,223,0
2017/01/13,14:17:41,41,309,-0.458496,0.88855,0.000793457,0.0150146,-1.57068,-0.708374,125.402,0,0,0.492188,-0.0078125,0,0,223,0
2017/01/13,14:17:41,41,343,-0.458496,0.88855,0.000793457,0.0150146,-1.57068,-0.708374,125.402,0,0,0.492188,-0.0078125,0,0,223,0
2017/01/13,14:17:41,41,375,-0.458496,0.88855,0.000793457,0.0150146,-1.57068,-0.708374,125.402,0,0,0.484375,-0.0078125,0,0,223,0
2017/01/13,14:17:41,41,377,-0.458496,0.88855,0.000793457,0.0150146,-1.57068,-0.708374,125.402,0,0,0.492188,-0.0078125,0,0,222,0
2017/01/13,14:17:41,41,394,-0.458496,0.88855,0.000793457,0.0150146,-1.57068,-0.708374,125.402,0,0,0.492188,-0.0078125,0,0,223,0
2017/01/13,14:17:41,41,425,-0.458496,0.88855,0.000793457,0.0150146,-1.57068,-0.708374,125.402,0,0,0.492188,-0.0078125,0,0,223,0
2017/01/13,14:17:41,41,459,-0.458496,0.88855,0.000793457,0.0150146,-1.57068,-0.708374,125.402,0,0,0.492188,-0.0078125,0,0,223,0
2017/01/13,14:17:41,41,475,-0.458496,0.88855,0.000793457,0.0150146,-1.57068,-0.708374,125.402,0,0,0.492188,-0.0078125,0,0,223,0
2017/01/13,14:17:41,41,509,-0.458496,0.88855,0.000793457,0.0150757,-1.5769,-0.711594,125.402,0,0,0.492188,-0.0078125,0,0,223,0
2017/01/13,14:17:41,41,526,-0.458496,0.88855,0.000793457,0.0150757,-1.5769,-0.711594,125.402,0,0,0.492188,-0.0078125,0,0,223,0
2017/01/13,14:17:41,41,542,-0.458496,0.88855,0.000793457,0.0150757,-1.5769,-0.711594,125.402,0,0,0.492188,-0.0078125,0,0,223,0
2017/01/13,14:17:41,41,575,-0.458496,0.88855,0.000793457,0.0150757,-1.5769,-0.711594,125.402,0,0,0.492188,-0.0078125,0,0,223,0
2017/01/13,14:17:41,41,608,-0.458557,0.88855,0.000793457,0.0151367,-1.58312,-0.714874,125.396,0,0,0.484375,-0.0078125,0,0,222,0
2017/01/13,14:17:41,41,643,-0.458557,0.88855,0.000793457,0.0151367,-1.58312,-0.714874,125.396,0,0,0.492188,-0.0078125,-0.0078125,0,223,0
2017/01/13,14:17:41,41,659,-0.458557,0.888489,0.000793457,0.0150757,-1.5768,-0.711746,125.393,0,0,0.492188,-0.0078125,0,0,223,0
2017/01/13,14:17:41,41,675,-0.458557,0.888489,0.000793457,0.0150757,-1.5768,-0.711746,125.393,0,0,0.492188,-0.0078125,0,0,223,0
2017/01/13,14:17:41,41,693,-0.458557,0.888489,0.000854492,0.0151367,-1.58622,-0.70874,125.393,0,0,0.492188,-0.0078125,0,0,223,0
2017/01/13,14:17:41,41,742,-0.458557,0.888489,0.000854492,0.0151367,-1.58622,-0.70874,125.393,0,0,0.492188,-0.0078125,0,0,222,0
2017/01/13,14:17:41,41,759,-0.458557,0.888489,0.000854492,0.0151978,-1.59244,-0.711945,125.393,0,0,0.492188,-0.0078125,0,0,223,0
2017/01/13,14:17:41,41,792,-0.458557,0.888489,0.000854492,0.0151978,-1.59244,-0.711945,125.393,0,0,0.492188,-0.0078125,0,0,223,0
2017/01/13,14:17:41,41,808,-0.458557,0.888489,0.000854492,0.0151978,-1.59244,-0.711945,125.393,0,0,0.492188,-0.0078125,0,0,223,0
2017/01/13,14:17:41,41,842,-0.458557,0.888489,0.000854492,0.0151978,-1.59244,-0.711945,125.393,0,0,0.484375,-0.0078125,0,0,223,0
2017/01/13,14:17:41,41,843,-0.458557,0.888489,0.000854492,0.0151978,-1.59244,-0.711945,125.393,0,0,0.492188,-0.0078125,-0.0078125,0,223,0
2017/01/13,14:17:41,41,876,-0.458557,0.888489,0.000854492,0.0151978,-1.59244,-0.711945,125.393,0,0,0.492188,-0.0078125,0,0,223,0
2017/01/13,14:17:41,41,909,-0.458557,0.888489,0.000854492,0.0152588,-1.59866,-0.715164,125.393,0,0,0.492188,-0.0078125,0,0,223,0
2017/01/13,14:17:41,41,942,-0.458557,0.888489,0.000854492,0.0152588,-1.59866,-0.715164,125.393,0,0,0.492188,-0.0078125,0,0,223,0
2017/01/13,14:17:41,41,960,-0.458557,0.888489,0.000793457,0.0152588,-1.59545,-0.721375,125.393,0,0,0.492188,-0.0078125,0,0,223,0
2017/01/13,14:17:41,41,976,-0.458557,0.888489,0.000793457,0.0152588,-1.59545,-0.721375,125.393,0,0,0.492188,-0.0078125,0,0,223,0
2017/01/13,14:17:42,42,11,-0.458557,0.888489,0.000854492,0.0152588,-1.59866,-0.715164,125.393,0,0,0.492188,-0.0078125,0,0,223,0
2017/01/13,14:17:42,42,26,-0.458557,0.888489,0.000854492,0.0152588,-1.59866,-0.715164,125.393,0,0,0.484375,-0.0078125,0,0,222,0
2017/01/13,14:17:42,42,59,-0.458557,0.888489,0.000854492,0.0152588,-1.59866,-0.715164,125.393,0,0,0.492188,-0.0078125,0,0,222,0
2017/01/13,14:17:42,42,94,-0.458557,0.888489,0.000854492,0.0153198,-1.60487,-0.718368,125.393,0,0,0.492188,-0.0078125,0,0,222,0
2017/01/13,14:17:42,42,109,-0.458557,0.888489,0.000854492,0.0153198,-1.60487,-0.718368,125.393,0,0,0.484375,-0.0078125,0,0,222,0
2017/01/13,14:17:42,42,127,-0.458618,0.888489,0.000854492,0.0152588,-1.59866,-0.715225,125.386,0,0,0.492188,-0.0078125,-0.0078125,0,222,0
2017/01/13,14:17:42,42,160,-0.458618,0.888489,0.000854492,0.0152588,-1.59866,-0.715225,125.386,0,0,0.492188,-0.0078125,0,0,222,0
2017/01/13,14:17:42,42,176,-0.458557,0.888489,0.000915527,0.0152588,-1.60186,-0.708939,125.393,0,0,0.492188,-0.0078125,0,0,222,0
2017/01/13,14:17:42,42,226,-0.458557,0.888489,0.000915527,0.0152588,-1.60186,-0.708939,125.393,0,0,0.492188,-0.0078125,0,0,222,0
2017/01/13,14:17:42,42,310,-0.458557,0.888489,0.000915527,0.0152588,-1.60186,-0.708939,125.393,0,0,0.492188,-0.0078125,0,0,222,0
2017/01/13,14:17:42,42,311,-0.458557,0.888489,0.000915527,0.0152588,-1.60186,-0.708939,125.393,0,0,0.492188,-0.0078125,0,0,223,0
2017/01/13,14:17:42,42,312,-0.458557,0.888489,0.000915527,0.0153198,-1.60808,-0.712158,125.393,0,0,0.484375,-0.0078125,0,0,223,0
2017/01/13,14:17:42,42,310,-0.458557,0.888489,0.000915527,0.0153198,-1.60808,-0.712158,125.393,0,0,0.484375,-0.0078125,0,0,223,0
2017/01/13,14:17:42,42,325,-0.458557,0.888489,0.000854492,0.0153198,-1.60487,-0.718368,125.393,0,0,0.492188,-0.0078125,0,0,223,0
2017/01/13,14:17:42,42,359,-0.458557,0.888489,0.000854492,0.0153198,-1.60487,-0.718368,125.393,0,0,0.492188,-0.0078125,0,0,223,0
2017/01/13,14:17:42,42,392,-0.458618,0.888489,0.000915527,0.0153198,-1.60809,-0.712219,125.386,0,0,0.492188,-0.0078125,0,0,223,0
2017/01/13,14:17:42,42,409,-0.458618,0.888489,0.000915527,0.0153198,-1.60809,-0.712219,125.386,0,0,0.484375,-0.0078125,-0.0078125,0,223,0
2017/01/13,14:17:42,42,425,-0.458618,0.888489,0.000915527,0.0153809,-1.6143,-0.715424,125.386,0,0,0.492188,-0.0078125,0,0,223,0
2017/01/13,14:17:42,42,459,-0.458618,0.888489,0.000915527,0.0153809,-1.6143,-0.715424,125.386,0,0,0.492188,-0.0078125,0,0,224,0
2017/01/13,14:17:42,42,476,-0.458618,0.888489,0.000915527,0.0153809,-1.6143,-0.715424,125.386,0,0,0.484375,-0.0078125,0,0,224,0
2017/01/13,14:17:42,42,508,-0.458618,0.888489,0.000915527,0.0153809,-1.6143,-0.715424,125.386,0,0,0.492188,-0.0078125,0,0,224,0
2017/01/13,14:17:42,42,543,-0.458618,0.888489,0.000915527,0.0153809,-1.6143,-0.715424,125.386,0,0,0.492188,-0.0078125,0,0,224,0
2017/01/13,14:17:42,42,575,-0.458618,0.888489,0.000915527,0.0153809,-1.6143,-0.715424,125.386,0,0,0.492188,-0.0078125,0,0,224,0
2017/01/13,14:17:42,42,576,-0.458618,0.888489,0.000915527,0.0153809,-1.6143,-0.715424,125.386,0,0,0.492188,-0.0078125,0,0,224,0
2017/01/13,14:17:42,42,609,-0.458618,0.888489,0.000915527,0.0153809,-1.6143,-0.715424,125.386,0,0,0.492188,-0.0078125,0,0,224,0
2017/01/13,14:17:42,42,642,-0.458618,0.888489,0.000915527,0.0153809,-1.6143,-0.715424,125.386,0,0,0.492188,-0.0078125,0,0,224,0
2017/01/13,14:17:42,42,658,-0.458618,0.888489,0.000915527,0.0153809,-1.6143,-0.715424,125.386,0,0,0.492188,-0.0078125,0,0,223,0
2017/01/13,14:17:42,42,692,-0.458618,0.888489,0.000854492,0.0153809,-1.6111,-0.721649,125.386,0,0,0.492188,-0.0078125,-0.0078125,0,223,0
2017/01/13,14:17:42,42,725,-0.458618,0.888489,0.000854492,0.0153809,-1.6111,-0.721649,125.386,0,0,0.492188,-0.0078125,-0.0078125,0,223,0
2017/01/13,14:17:42,42,726,-0.458618,0.888489,0.000854492,0.0153809,-1.6111,-0.721649,125.386,0,0,0.492188,-0.0078125,0,0,223,0
2017/01/13,14:17:42,42,759,-0.458618,0.888489,0.000854492,0.0153809,-1.6111,-0.721649,125.386,0,0,0.492188,-0.0078125,0,0,223,0
2017/01/13,14:17:42,42,792,-0.458618,0.888489,0.000854492,0.0153809,-1.6111,-0.721649,125.386,0,0,0.492188,-0.0078125,0,0,223,0
2017/01/13,14:17:42,42,809,-0.458618,0.888489,0.000854492,0.0153809,-1.6111,-0.721649,125.386,0,0,0.492188,-0.0078125,0,0,223,0
2017/01/13,14:17:42,42,875,-0.458618,0.888489,0.000854492,0.0153809,-1.6111,-0.721649,125.386,0,0,0.492188,-0.0078125,0,0,223,0
2017/01/13,14:17:42,42,876,-0.458618,0.888489,0.000854492,0.0153809,-1.6111,-0.721649,125.386,0,0,0.492188,-0.0078125,0,0,223,0
2017/01/13,14:17:42,42,877,-0.458618,0.888489,0.000854492,0.0153809,-1.6111,-0.721649,125.386,0,0,0.492188,-0.0078125,0,0,223,0
2017/01/13,14:17:42,42,909,-0.458618,0.888489,0.000854492,0.0153809,-1.6111,-0.721649,125.386,0,0,0.492188,-0.0078125,-0.0078125,0,223,0
2017/01/13,14:17:42,42,940,-0.458618,0.888489,0.000854492,0.0153809,-1.6111,-0.721649,125.386,0,0,0.492188,-0.0078125,0,0,223,0
2017/01/13,14:17:42,42,975,-0.458618,0.888489,0.000854492,0.0153809,-1.6111,-0.721649,125.386,0,0,0.484375,-0.0078125,0,0,223,0
2017/01/13,14:17:42,42,992,-0.458618,0.888489,0.000854492,0.0154419,-1.61731,-0.724854,125.386,0,0,0.484375,-0.0078125,0,0,223,0
2017/01/13,14:17:43,43,25,-0.458618,0.888489,0.000854492,0.0154419,-1.61731,-0.724854,125.386,0,0,0.484375,-0.0078125,0,0,223,0
2017/01/13,14:17:43,43,42,-0.458679,0.888489,0.000854492,0.0154419,-1.61732,-0.72493,125.38,0,0,0.492188,-0.0078125,0,0,223,0
2017/01/13,14:17:43,43,75,-0.458679,0.888489,0.000854492,0.0154419,-1.61732,-0.72493,125.38,0,0,0.492188,-0.0078125,0,0,223,0
2017/01/13,14:17:43,43,92,-0.458679,0.888489,0.000793457,0.0154419,-1.61411,-0.73114,125.38,0,0,0.492188,-0.0078125,-0.0078125,0,223,0
2017/01/13,14:17:43,43,125,-0.458679,0.888489,0.000793457,0.0154419,-1.61411,-0.73114,125.38,0,0,0.484375,-0.0078125,0,0,223,0
2017/01/13,14:17:43,43,142,-0.458618,0.888489,0.000793457,0.0154419,-1.6141,-0.731064,125.386,0,0,0.492188,-0.0078125,0,0,223,0
2017/01/13,14:17:43,43,176,-0.458618,0.888489,0.000793457,0.0154419,-1.6141,-0.731064,125.386,0,0,0.484375,-0.0078125,0,0,223,0
2017/01/13,14:17:43,43,208,-0.458618,0.888489,0.000793457,0.0153809,-1.60789,-0.727859,125.386,0,0,0.492188,-0.0078125,0,0,223,0
2017/01/13,14:17:43,43,209,-0.458618,0.888489,0.000793457,0.0153809,-1.60789,-0.727859,125.386,0,0,0.492188,-0.0078125,0,0,223,0
2017/01/13,14:17:43,43,260,-0.458618,0.888489,0.000793457,0.0153198,-1.60167,-0.724655,125.386,0,0,0.492188,-0.0078125,0,0,223,0
2017/01/13,14:17:43,43,340,-0.458618,0.888489,0.000793457,0.0153198,-1.60167,-0.724655,125.386,0,0,0.492188,-0.0078125,0,0,223,0
2017/01/13,14:17:43,43,341,-0.458618,0.888489,0.000793457,0.0153198,-1.60167,-0.724655,125.386,0,0,0.484375,-0.0078125,0,0,222,0
2017/01/13,14:17:43,43,342,-0.458618,0.888489,0.000793457,0.0153198,-1.60167,-0.724655,125.386,0,0,0.492188,-0.0078125,0,0,222,0
2017/01/13,14:17:43,43,340,-0.458618,0.888489,0.000793457,0.0153198,-1.60167,-0.724655,125.386,0,0,0.484375,-0.0078125,0,0,222,0
2017/01/13,14:17:43,43,359,-0.458618,0.888489,0.000793457,0.0153198,-1.60167,-0.724655,125.386,0,0,0.492188,-0.0078125,0,0,222,0
2017/01/13,14:17:43,43,392,-0.458618,0.888489,0.000793457,0.0153198,-1.60167,-0.724655,125.386,0,0,0.492188,-0.0078125,0,0,222,0
2017/01/13,14:17:43,43,426,-0.458618,0.888489,0.000793457,0.0153198,-1.60167,-0.724655,125.386,0,0,0.492188,-0.0078125,-0.0078125,0,222,0
2017/01/13,14:17:43,43,442,-0.458618,0.888489,0.000732422,0.0153198,-1.59846,-0.730865,125.386,0,0,0.492188,-0.0078125,-0.0078125,0,222,0
2017/01/13,14:17:43,43,492,-0.458618,0.888489,0.000732422,0.0153198,-1.59846,-0.730865,125.386,0,0,0.492188,-0.0078125,0,0,222,0
2017/01/13,14:17:43,43,508,-0.458618,0.888489,0.000732422,0.0152588,-1.59224,-0.727661,125.386,0,0,0.492188,-0.0078125,0,0,222,0
2017/01/13,14:17:43,43,509,-0.458618,0.888489,0.000732422,0.0152588,-1.59224,-0.727661,125.386,0,0,0.492188,-0.0078125,0,0,222,0
2017/01/13,14:17:43,43,542,-0.458618,0.888489,0.000793457,0.0152588,-1.59545,-0.721436,125.386,0,0,0.492188,-0.0078125,0,0,222,0
2017/01/13,14:17:43,43,592,-0.458618,0.888489,0.000793457,0.0152588,-1.59545,-0.721436,125.386,0,0,0.492188,-0.0078125,0,0,223,0
2017/01/13,14:17:43,43,593,-0.458618,0.888489,0.000793457,0.0152588,-1.59545,-0.721436,125.386,0,0,0.492188,-0.0078125,0,0,222,0
2017/01/13,14:17:43,43,626,-0.458618,0.888489,0.000793457,0.0152588,-1.59545,-0.721436,125.386,0,0,0.492188,-0.0078125,0,0,223,0
2017/01/13,14:17:43,43,642,-0.458618,0.888489,0.000793457,0.0151978,-1.58924,-0.718231,125.386,0,0,0.492188,-0.0078125,0,0,223,0
2017/01/13,14:17:43,43,659,-0.458618,0.888489,0.000793457,0.0151978,-1.58924,-0.718231,125.386,0,0,0.492188,-0.0078125,0,0,223,0
2017/01/13,14:17:43,43,709,-0.458557,0.888489,0.000793457,0.0151978,-1.58923,-0.718155,125.393,0,0,0.492188,-0.0078125,0,0,223,0
2017/01/13,14:17:43,43,726,-0.458557,0.888489,0.000793457,0.0151978,-1.58923,-0.718155,125.393,0,0,0.492188,-0.0078125,0,0,224,0
2017/01/13,14:17:43,43,742,-0.458557,0.88855,0.000793457,0.0150757,-1.5769,-0.711655,125.396,0,0,0.492188,-0.0078125,0,0,223,0
2017/01/13,14:17:43,43,775,-0.458557,0.88855,0.000793457,0.0150757,-1.5769,-0.711655,125.396,0,0,0.492188,-0.0078125,0,0,223,0
2017/01/13,14:17:43,43,809,-0.458557,0.88855,0.000793457,0.0149536,-1.56447,-0.705246,125.396,0,0,0.492188,-0.0078125,0,0,223,0
2017/01/13,14:17:43,43,810,-0.458557,0.88855,0.000793457,0.0149536,-1.56447,-0.705246,125.396,0,0,0.492188,-0.0078125,-0.0078125,0,223,0
2017/01/13,14:17:43,43,842,-0.458496,0.88855,0.000732422,0.0148926,-1.55504,-0.708191,125.402,0,0,0.492188,-0.0078125,-0.0078125,0,223,0
2017/01/13,14:17:43,43,876,-0.458496,0.88855,0.000732422,0.0148926,-1.55504,-0.708191,125.402,0,0,0.492188,-0.0078125,-0.0078125,0,223,0
2017/01/13,14:17:43,43,893,-0.458435,0.888611,0.000549316,0.0147705,-1.53308,-0.720261,125.412,0,0,0.484375,-0.0078125,-0.0078125,0,223,0
2017/01/13,14:17:43,43,926,-0.458435,0.888611,0.000549316,0.0147705,-1.53308,-0.720261,125.412,0,0,0.492188,-0.0078125,0,0,223,0
2017/01/13,14:17:43,43,942,-0.458496,0.88855,0.000671387,0.0149536,-1.55805,-0.717621,125.402,0,0,0.492188,-0.0078125,-0.0078125,0,223,0
2017/01/13,14:17:43,43,959,-0.458496,0.88855,0.000671387,0.0149536,-1.55805,-0.717621,125.402,0,0,0.492188,-0.0078125,-0.0078125,0,223,0
2017/01/13,14:17:43,43,992,-0.458618,0.888489,0.000610352,0.0157471,-1.63556,-0.765762,125.386,0,0,0.492188,-0.0078125,-0.0078125,0,223,0
2017/01/13,14:17:44,44,26,-0.458618,0.888489,0.000610352,0.0157471,-1.63556,-0.765762,125.386,-0.0078125,0,0.507812,-0.0078125,-0.0078125,0,223,0
2017/01/13,14:17:44,44,42,-0.458923,0.888184,-0.00299072,0.0220337,-2.08573,-1.46428,125.323,0.0078125,-0.0234375,0.585938,-0.0234375,-0.0234375,-0.0078125,223,0
2017/01/13,14:17:44,44,76,-0.458923,0.888184,-0.00299072,0.0220337,-2.08573,-1.46428,125.323,-0.0078125,-0.015625,0.65625,-0.046875,-0.0234375,-0.0078125,223,0
2017/01/13,14:17:44,44,92,-0.460266,0.885742,-0.00231934,0.0599365,-5.97195,-3.41724,124.905,0.015625,-0.0234375,0.734375,-0.0703125,-0.0234375,-0.0078125,223,0
2017/01/13,14:17:44,44,109,-0.460266,0.885742,-0.00231934,0.0599365,-5.97195,-3.41724,124.905,-0.0234375,-0.0625,0.71875,-0.09375,-0.03125,-0.0078125,223,0
2017/01/13,14:17:44,44,143,-0.462769,0.876831,0.0105591,0.129944,-13.7479,-6.01297,123.627,-0.03125,-0.0703125,0.757812,-0.101562,-0.0390625,-0.015625,224,0
2017/01/13,14:17:44,44,176,-0.462769,0.876831,0.0105591,0.129944,-13.7479,-6.01297,123.627,-0.046875,0.109375,0.640625,-0.09375,-0.0703125,-0.015625,225,0
2017/01/13,14:17:44,44,208,-0.463074,0.861084,-0.00445557,0.209778,-20.925,-12.488,121.144,-0.664062,0.5625,0.609375,-0.0625,-0.0859375,-0.0078125,225,0
2017/01/13,14:17:44,44,226,-0.463074,0.861084,-0.00445557,0.209778,-20.925,-12.488,121.144,-0.640625,0.570312,0.5625,-0.03125,-0.03125,0.0078125,229,0.0571802
2017/01/13,14:17:44,44,243,-0.453857,0.871826,0.0119019,0.183777,-19.3444,-8.90559,123.478,-0.148438,0.453125,0.34375,0.0078125,0.0390625,0.0234375,231,0
2017/01/13,14:17:44,44,260,-0.453857,0.871826,0.0119019,0.183777,-19.3444,-8.90559,123.478,-0.140625,0.429688,0.429688,0.03125,0.0390625,0.015625,233,0
2017/01/13,14:17:44,44,310,-0.446838,0.886353,0.0325928,0.116943,-13.6761,-2.75668,126.161,-0.046875,0.296875,0.445312,0.0546875,0.046875,0.0078125,240,0
2017/01/13,14:17:44,44,326,-0.446838,0.886353,0.0325928,0.116943,-13.6761,-2.75668,126.161,-0.0234375,0.203125,0.515625,0.0625,0.046875,0.0078125,246,0
2017/01/13,14:17:44,44,342,-0.446716,0.893066,0.0419922,0.0327148,-5.50601,2.63593,126.978,0.0078125,0.101562,0.570312,0.0703125,0.046875,0.0078125,255,0
2017/01/13,14:17:44,44,392,-0.446716,0.893066,0.0419922,0.0327148,-5.50601,2.63593,126.978,0,0,0.59375,0.0703125,0.0390625,0.0078125,267,0
2017/01/13,14:17:44,44,463,-0.439697,0.896057,0.041626,-0.0449829,2.52234,6.56129,127.581,-0.0078125,-0.0703125,0.632812,0.0703125,0.03125,0.0078125,276,0
2017/01/13,14:17:44,44,464,-0.439697,0.896057,0.041626,-0.0449829,2.52234,6.56129,127.581,0.0078125,-0.15625,0.671875,0.0703125,0.03125,0.015625,281,0
2017/01/13,14:17:44,44,472,-0.427063,0.897034,0.0400391,-0.106323,9.00686,9.47885,128.335,0.0234375,-0.304688,0.65625,0.0703125,0.0234375,0.0234375,283,0
2017/01/13,14:17:44,44,473,-0.427063,0.897034,0.0400391,-0.106323,9.00686,9.47885,128.335,0.0390625,-0.4375,0.59375,0.0625,0.0234375,0.03125,283,0
2017/01/13,14:17:44,44,474,-0.405334,0.901367,0.0360718,-0.14801,13.7438,10.9805,130.247,0.0390625,-0.585938,0.46875,0.046875,0.015625,0.0234375,280,0
2017/01/13,14:17:44,44,543,-0.405334,0.901367,0.0360718,-0.14801,13.7438,10.9805,130.247,0.03125,-0.609375,0.429688,0.0234375,0.0078125,0.015625,275,0
2017/01/13,14:17:44,44,559,-0.39209,0.906799,0.0408936,-0.149475,13.8287,11.3666,131.851,0.078125,-0.601562,0.4375,0,0.0078125,0.0078125,267,0
2017/01/13,14:17:44,44,560,-0.39209,0.906799,0.0408936,-0.149475,13.8287,11.3666,131.851,0.117188,-0.578125,0.414062,-0.015625,0,0,255,0
2017/01/13,14:17:44,44,609,-0.390991,0.91272,0.0471191,-0.108887,9.31834,9.98836,132.805,0.507812,-0.34375,-0.132812,-0.0703125,-0.101562,0.015625,245,0.0733301
2017/01/13,14:17:44,44,626,-0.390991,0.91272,0.0471191,-0.108887,9.31834,9.98836,132.805,-0.0546875,0.148438,0.453125,-0.078125,-0.109375,0.0078125,239,0
2017/01/13,14:17:44,44,642,-0.390747,0.920227,0.000427246,-0.0213623,2.2341,1.00244,133.966,-0.078125,0.0078125,0.578125,-0.0703125,-0.0078125,0,235,0
2017/01/13,14:17:44,44,676,-0.390747,0.920227,0.000427246,-0.0213623,2.2341,1.00244,133.966,0.046875,-0.0234375,0.757812,-0.0546875,-0.0234375,0,232,0
2017/01/13,14:17:44,44,709,-0.388,0.921387,0.00750732,0.0200806,-2.45471,-0.100266,134.325,0,0,0.492188,-0.0078125,-0.0078125,0,231,0
2017/01/13,14:17:44,44,710,-0.388,0.921387,0.00750732,0.0200806,-2.45471,-0.100266,134.325,0,0,0.492188,-0.0078125,0,0,231,0
2017/01/13,14:17:44,44,759,-0.388123,0.921326,0.00769043,0.0219116,-2.65633,-0.162766,134.308,-0.0078125,0,0.492188,-0.0078125,0,0,231,0
2017/01/13,14:17:44,44,775,-0.388123,0.921326,0.00769043,0.0219116,-2.65633,-0.162766,134.308,-0.0078125,0,0.492188,-0.0078125,0,0,232,0
2017/01/13,14:17:44,44,792,-0.388062,0.921326,0.00775146,0.0215454,-2.62029,-0.139877,134.315,-0.0078125,0,0.492188,-0.0078125,0,0,233,0
2017/01/13,14:17:44,44,826,-0.388062,0.921326,0.00775146,0.0215454,-2.62029,-0.139877,134.315,-0.0078125,0,0.492188,-0.0078125,0,0,233,0
2017/01/13,14:17:44,44,843,-0.388062,0.921326,0.00817871,0.0212402,-2.60706,-0.081131,134.317,-0.0078125,0,0.492188,-0.0078125,0,0,235,0
2017/01/13,14:17:44,44,859,-0.388062,0.921326,0.00817871,0.0212402,-2.60706,-0.081131,134.317,-0.0078125,0,0.492188,-0.0078125,0,0,236,0
2017/01/13,14:17:44,44,893,-0.388123,0.921326,0.00872803,0.0209351,-2.59932,-0.00964355,134.312,-0.0078125,0,0.492188,-0.0078125,0,0,236,0
2017/01/13,14:17:44,44,925,-0.388123,0.921326,0.00872803,0.0209351,-2.59932,-0.00964355,134.312,-0.0078125,0,0.484375,-0.0078125,0,0,236,0
2017/01/13,14:17:44,44,938,-0.388245,0.921265,0.00933838,0.0206909,-2.60068,0.0653839,134.298,-0.0078125,0,0.484375,-0.0078125,0,0,236,0
2017/01/13,14:17:44,44,976,-0.388245,0.921265,0.00933838,0.0206909,-2.60068,0.0653839,134.298,-0.0078125,0,0.492188,-0.0078125,0,0,236,0
2017/01/13,14:17:45,45,9,-0.388367,0.921204,0.0100708,0.0205688,-2.62039,0.147873,134.284,-0.0078125,0,0.492188,-0.0078125,0,0,236,0
2017/01/13,14:17:45,45,25,-0.388367,0.921204,0.0100708,0.0205688,-2.62039,0.147873,134.284,-0.0078125,0,0.492188,-0.0078125,0,0,236,0
2017/01/13,14:17:45,45,42,-0.388428,0.921143,0.0111694,0.0205078,-2.66282,0.266479,134.278,-0.0078125,0,0.492188,-0.0078125,0,0,237,0
2017/01/13,14:17:45,45,75,-0.388428,0.921143,0.0111694,0.0205078,-2.66282,0.266479,134.278,-0.0078125,0,0.492188,-0.0078125,0,0,237,0
2017/01/13,14:17:45,45,92,-0.38855,0.921082,0.0130005,0.0206909,-2.7638,0.451477,134.267,-0.015625,0,0.492188,-0.0078125,0,0,237,0
2017/01/13,14:17:45,45,125,-0.38855,0.921082,0.0130005,0.0206909,-2.7638,0.451477,134.267,-0.015625,0,0.507812,-0.0078125,0,0,237,0
2017/01/13,14:17:45,45,143,-0.38916,0.920654,0.0186768,0.0233154,-3.29445,0.932281,134.199,-0.0078125,-0.015625,0.578125,-0.0234375,0,-0.0078125,237,0
2017/01/13,14:17:45,45,159,-0.38916,0.920654,0.0186768,0.0233154,-3.29445,0.932281,134.199,0,-0.015625,0.578125,-0.046875,0.0078125,-0.0078125,237,0
2017/01/13,14:17:45,45,193,-0.389648,0.918823,0.0404663,0.0475464,-6.82913,2.15358,134.167,-0.03125,-0.03125,0.609375,-0.0625,0.0078125,-0.0078125,238,0
2017/01/13,14:17:45,45,242,-0.389648,0.918823,0.0404663,0.0475464,-6.82913,2.15358,134.167,-0.0703125,-0.0625,0.664062,-0.078125,0,-0.0078125,239,0
2017/01/13,14:17:45,45,243,-0.389282,0.912964,0.0684814,0.101013,-13.7544,2.73805,134.144,-0.0390625,-0.101562,0.726562,-0.101562,-0.0078125,-0.0078125,241,0
2017/01/13,14:17:45,45,275,-0.389282,0.912964,0.0684814,0.101013,-13.7544,2.73805,134.144,-0.078125,-0.125,0.875,-0.132812,-0.015625,-0.0078125,245,0
2017/01/13,14:17:45,45,293,-0.383911,0.8974,0.0985107,0.193848,-25.0593,1.76917,134.07,-0.0625,-0.195312,0.992188,-0.1875,-0.0234375,-0.015625,249,0
2017/01/13,14:17:45,45,325,-0.383911,0.8974,0.0985107,0.193848,-25.0593,1.76917,134.07,-0.1875,-0.164062,0.992188,-0.226562,-0.0234375,-0.015625,257,0
2017/01/13,14:17:45,45,343,-0.368774,0.850098,0.1474,0.345764,-44.1534,-0.352158,132.955,-0.28125,0.117188,0.992188,-0.242188,-0.015625,-0.0234375,266,0
2017/01/13,14:17:45,45,376,-0.368774,0.850098,0.1474,0.345764,-44.1534,-0.352158,132.955,-0.226562,0.765625,0.992188,-0.273438,-0.015625,-0.03125,275,0
2017/01/13,14:17:45,45,392,-0.34375,0.770325,0.200745,0.497986,-64.8548,-4.46982,129.062,-0.179688,0.84375,0.578125,-0.234375,-0.03125,-0.0234375,286,0.0937014
2017/01/13,14:17:45,45,425,-0.34375,0.770325,0.200745,0.497986,-64.8548,-4.46982,129.062,-0.132812,0.546875,0.515625,0.09375,-0.03125,0.0234375,295,0
2017/01/13,14:17:45,45,528,-0.328003,0.80896,0.170654,0.45697,-58.3524,-2.58612,134.414,-0.132812,0.25,0.242188,0.101562,-0.03125,0,304,0
2017/01/13,14:17:45,45,529,-0.328003,0.80896,0.170654,0.45697,-58.3524,-2.58612,134.414,-0.164062,0.21875,0.273438,0.09375,-0.015625,-0.0234375,311,0
2017/01/13,14:17:45,45,543,-0.341003,0.852539,0.124146,0.376099,-46.5476,-3.73714,134.791,-0.132812,0.179688,0.320312,0.109375,0,-0.03125,316,0
2017/01/13,14:17:45,45,544,-0.341003,0.852539,0.124146,0.376099,-46.5476,-3.73714,134.791,-0.203125,0.171875,0.414062,0.117188,-0.0078125,-0.015625,319,0
2017/01/13,14:17:45,45,545,-0.363831,0.887573,0.0826416,0.270142,-32.6616,-3.39623,134.426,-0.273438,0.117188,0.507812,0.148438,0,0.0078125,319,0
2017/01/13,14:17:45,45,576,-0.363831,0.887573,0.0826416,0.270142,-32.6616,-3.39623,134.426,-0.320312,0.0078125,0.601562,0.164062,0.015625,0.0234375,315,0
2017/01/13,14:17:45,45,593,-0.359375,0.923584,0.0526733,0.122437,-15.3087,0.552231,137.551,-0.3125,-0.0234375,0.78125,0.164062,0.03125,0.03125,304,0
2017/01/13,14:17:45,45,610,-0.359375,0.923584,0.0526733,0.122437,-15.3087,0.552231,137.551,-0.289062,-0.210938,0.960938,0.164062,0.0390625,0.03125,292,0
2017/01/13,14:17:45,45,643,-0.341309,0.938477,0.0422974,-0.0306396,1.64096,5.75935,139.946,-0.351562,-0.546875,0.992188,0.15625,0.03125,0.03125,278,0
2017/01/13,14:17:45,45,676,-0.341309,0.938477,0.0422974,-0.0306396,1.64096,5.75935,139.946,-0.179688,-0.953125,0.992188,0.15625,0.0546875,0.0234375,263,0
2017/01/13,14:17:45,45,692,-0.322693,0.933472,0.0497437,-0.148438,14.183,11.2212,140.46,-0.0625,-1,0.953125,0.15625,0.046875,0.015625,246,0
2017/01/13,14:17:45,45,727,-0.322693,0.933472,0.0497437,-0.148438,14.183,11.2212,140.46,0.101562,-1,0.539062,0.109375,0.0625,-0.0390625,230,0
2017/01/13,14:17:45,45,742,-0.340942,0.910217,0.0769653,-0.222046,20.5937,18.1456,135.607,0.609375,-1,0.484375,0.0546875,0.0625,-0.078125,214,0
2017/01/13,14:17:45,45,759,-0.340942,0.910217,0.0769653,-0.222046,20.5937,18.1456,135.607,0.554688,-1,0.390625,0.0078125,0,-0.046875,201,0
2017/01/13,14:17:45,45,792,-0.386169,0.896851,0.0876465,-0.19696,16.5944,18.8321,130.637,0.148438,-0.476562,-0.273438,-0.101562,-0.171875,0.0390625,193,0.21881
2017/01/13,14:17:45,45,858,-0.386169,0.896851,0.0876465,-0.19696,16.5944,18.8321,130.637,0.304688,0.03125,0.882812,-0.132812,-0.132812,0.0390625,186,0
2017/01/13,14:17:45,45,859,-0.366943,0.928894,6.10352E-05,-0.0497437,5.29987,2.10771,136.791,0.15625,-0.015625,0.90625,-0.132812,-0.0390625,0.0078125,182,0
2017/01/13,14:17:45,45,876,-0.366943,0.928894,6.10352E-05,-0.0497437,5.29987,2.10771,136.791,-0.03125,0,0.453125,-0.03125,-0.03125,-0.0078125,179,0
2017/01/13,14:17:45,45,888,-0.367737,0.929749,-0.0065918,0.0140381,-1.21795,-1.29439,136.826,0,0,0.492188,-0.0078125,-0.0078125,0,177,0
2017/01/13,14:17:45,45,909,-0.367737,0.929749,-0.0065918,0.0140381,-1.21795,-1.29439,136.826,0.0078125,0,0.5,-0.0078125,0,0,176,0
2017/01/13,14:17:45,45,942,-0.367676,0.92981,-0.0057373,0.0163574,-1.5013,-1.30099,136.832,0.0078125,0,0.492188,-0.0078125,0,0,175,0
2017/01/13,14:17:45,45,976,-0.367676,0.92981,-0.0057373,0.0163574,-1.5013,-1.30099,136.832,0.0078125,0,0.492188,-0.0078125,0,0,175,0
2017/01/13,14:17:45,45,993,-0.367737,0.929749,-0.00506592,0.0166016,-1.55547,-1.23991,136.823,0.0078125,0,0.492188,-0.0078125,0,0,175,0
2017/01/13,14:17:46,46,26,-0.367737,0.929749,-0.00506592,0.0166016,-1.55547,-1.23991,136.823,0.0078125,0,0.492188,-0.0078125,0,0,175,0
2017/01/13,14:17:46,46,42,-0.367737,0.929749,-0.00439453,0.0172119,-1.64882,-1.19411,136.823,0.0078125,0,0.484375,-0.0078125,0,0,175,0
2017/01/13,14:17:46,46,58,-0.367737,0.929749,-0.00439453,0.0172119,-1.64882,-1.19411,136.823,0.0078125,0,0.484375,-0.0078125,0,0,174,0
2017/01/13,14:17:46,46,93,-0.36792,0.929688,-0.00384521,0.0178223,-1.73683,-1.16164,136.8,0.0078125,0,0.484375,-0.0078125,0,0,175,0
2017/01/13,14:17:46,46,125,-0.36792,0.929688,-0.00384521,0.0178223,-1.73683,-1.16164,136.8,0,0,0.484375,-0.0078125,0,0,175,0
2017/01/13,14:17:46,46,159,-0.368103,0.929565,-0.00292969,0.0184326,-1.84019,-1.09029,136.776,0.0078125,0,0.484375,-0.0078125,0,0,175,0
2017/01/13,14:17:46,46,176,-0.368103,0.929565,-0.00292969,0.0184326,-1.84019,-1.09029,136.776,0.0078125,0,0.492188,-0.0078125,0,0,175,0
2017/01/13,14:17:46,46,192,-0.368469,0.929443,-0.00183105,0.019043,-1.95126,-0.99971,136.732,0,0,0.492188,-0.0078125,0,0,175,0
2017/01/13,14:17:46,46,226,-0.368469,0.929443,-0.00183105,0.019043,-1.95126,-0.99971,136.732,0,0,0.492188,-0.0078125,0,-0.0078125,175,0
2017/01/13,14:17:46,46,242,-0.369324,0.929077,6.10352E-05,0.0199585,-2.12794,-0.838791,136.627,0.0078125,-0.0078125,0.515625,-0.015625,0,-0.0078125,175,0
2017/01/13,14:17:46,46,276,-0.369324,0.929077,6.10352E-05,0.0199585,-2.12794,-0.838791,136.627,-0.0234375,-0.015625,0.570312,-0.0234375,0,-0.0078125,175,0
2017/01/13,14:17:46,46,306,-0.370178,0.928284,0.0111084,0.0321045,-3.88926,-0.180634,136.512,0,-0.0234375,0.578125,-0.046875,0.015625,-0.0078125,175,0
2017/01/13,14:17:46,46,307,-0.370178,0.928284,0.0111084,0.0321045,-3.88926,-0.180634,136.512,0.0078125,-0.046875,0.601562,-0.0625,0.0078125,0,174,0
2017/01/13,14:17:46,46,359,-0.369873,0.92572,0.0383911,0.0690918,-8.9933,1.1584,136.533,-0.03125,-0.0625,0.632812,-0.078125,0,0,174,0
2017/01/13,14:17:46,46,375,-0.369873,0.92572,0.0383911,0.0690918,-8.9933,1.1584,136.533,-0.0390625,-0.101562,0.703125,-0.09375,0,-0.0078125,174,0
2017/01/13,14:17:46,46,409,-0.367126,0.918274,0.0681152,0.131714,-16.9725,1.7007,136.671,0.0390625,-0.164062,0.890625,-0.117188,0,-0.0078125,174,0
2017/01/13,14:17:46,46,425,-0.367126,0.918274,0.0681152,0.131714,-16.9725,1.7007,136.671,-0.0703125,-0.179688,0.992188,-0.171875,-0.0078125,-0.0078125,174,0
2017/01/13,14:17:46,46,459,-0.357178,0.894226,0.110229,0.246216,-31.2711,1.42496,136.853,-0.09375,-0.164062,0.992188,-0.226562,-0.015625,-0.0078125,174,0
2017/01/13,14:17:46,46,460,-0.357178,0.894226,0.110229,0.246216,-31.2711,1.42496,136.853,-0.328125,0.0703125,0.992188,-0.25,-0.0234375,-0.015625,174,0
2017/01/13,14:17:46,46,509,-0.332642,0.832153,0.167358,0.410889,-52.6728,0.489349,136.666,-0.335938,0.9375,0.773438,-0.28125,-0.0078125,-0.03125,174,0
2017/01/13,14:17:46,46,580,-0.332642,0.832153,0.167358,0.410889,-52.6728,0.489349,136.666,-0.3125,0.992188,0.117188,-0.265625,-0.0234375,-0.0390625,174,0.134884
2017/01/13,14:17:46,46,590,-0.315369,0.77478,0.192932,0.512817,-66.3955,-3.50804,133.407,-0.15625,0.625,0.578125,0.0859375,-0.0078125,-0.0078125,173,0
2017/01/13,14:17:46,46,591,-0.315369,0.77478,0.192932,0.512817,-66.3955,-3.50804,133.407,-0.109375,0.242188,0.257812,0.09375,-0.0234375,-0.015625,173,0
2017/01/13,14:17:46,46,592,-0.333191,0.825867,0.147095,0.43042,-53.9945,-4.2794,133.876,-0.195312,0.242188,0.265625,0.0859375,-0.015625,-0.0234375,173,0
2017/01/13,14:17:46,46,610,-0.333191,0.825867,0.147095,0.43042,-53.9945,-4.2794,133.876,-0.15625,0.226562,0.351562,0.109375,0.0078125,-0.0234375,174,0
2017/01/13,14:17:46,46,660,-0.360962,0.862366,0.112915,0.336548,-41.4503,-3.68825,133.178,-0.125,0.195312,0.453125,0.132812,0.0234375,-0.0078125,184,0
2017/01/13,14:17:46,46,676,-0.360962,0.862366,0.112915,0.336548,-41.4503,-3.68825,133.178,-0.15625,0.117188,0.53125,0.164062,0.0234375,0.015625,341,0
2017/01/13,14:17:46,46,692,-0.372192,0.904236,0.0831909,0.191895,-24.1396,0.477554,135.357,-0.195312,0.0078125,0.632812,0.171875,0.0234375,0.0234375,228,0
2017/01/13,14:17:46,46,725,-0.372192,0.904236,0.0831909,0.191895,-24.1396,0.477554,135.357,-0.195312,-0.046875,0.789062,0.164062,0.0390625,0.0234375,249,0
2017/01/13,14:17:46,46,759,-0.362061,0.929382,0.0640259,0.0314331,-6.01502,5.55423,137.723,-0.179688,-0.21875,0.976562,0.164062,0.046875,0.0234375,268,0
2017/01/13,14:17:46,46,776,-0.362061,0.929382,0.0640259,0.0314331,-6.01502,5.55423,137.723,-0.21875,-0.390625,0.992188,0.164062,0.046875,0.0234375,285,0
2017/01/13,14:17:46,46,792,-0.346741,0.929626,0.0579834,-0.110413,9.50156,10.7744,138.192,-0.132812,-0.875,0.992188,0.1875,0.046875,0.03125,300,0
2017/01/13,14:17:46,46,825,-0.346741,0.929626,0.0579834,-0.110413,9.50156,10.7744,138.192,-0.0546875,-1,0.992188,0.179688,0.03125,0.03125,313,0
2017/01/13,14:17:46,46,843,-0.328369,0.915466,0.045105,-0.228088,22.8296,14.6042,137.571,-0.109375,-1,0.585938,0.109375,0.0234375,0.0078125,315,0
2017/01/13,14:17:46,46,875,-0.328369,0.915466,0.045105,-0.228088,22.8296,14.6042,137.571,0.328125,-1,0.46875,0.0546875,0.0546875,-0.046875,305,0
2017/01/13,14:17:46,46,909,-0.349243,0.898193,0.0737915,-0.256592,24.1669,19.9824,133.185,0.625,-1,0.367188,0,0.0234375,-0.046875,296,0
2017/01/13,14:17:46,46,925,-0.349243,0.898193,0.0737915,-0.256592,24.1669,19.9824,133.185,-0.015625,-0.570312,0.0546875,-0.078125,-0.0703125,-0.0078125,288,0.183988
2017/01/13,14:17:46,46,959,-0.367065,0.911499,0.0567017,-0.176636,16.2829,14.0509,134.11,0.0625,0.414062,0.9375,-0.117188,-0.210938,0.0234375,283,0
2017/01/13,14:17:46,46,993,-0.367065,0.911499,0.0567017,-0.176636,16.2829,14.0509,134.11,0.382812,-0.117188,0.992188,-0.1875,-0.0390625,0.0234375,280,0
2017/01/13,14:17:46,46,994,-0.360474,0.932617,0.00708008,-0.0146484,1.27313,1.36223,137.72,-0.0703125,-0.046875,0.617188,-0.0703125,-0.0390625,-0.0078125,278,0
2017/01/13,14:17:47,47,26,-0.360474,0.932617,0.00708008,-0.0146484,1.27313,1.36223,137.72,-0.0078125,-0.0234375,0.507812,-0.015625,-0.0078125,0,278,0
2017/01/13,14:17:47,47,76,-0.361084,0.932434,0.00646973,0.012207,-1.57221,0.186264,137.665,0,-0.0078125,0.492188,-0.0078125,0,0,279,0
2017/01/13,14:17:47,47,77,-0.361084,0.932434,0.00646973,0.012207,-1.57221,0.186264,137.665,-0.0078125,0,0.492188,-0.0078125,0,0,281,0
2017/01/13,14:17:47,47,110,-0.360718,0.932556,0.00726318,0.0131836,-1.70932,0.231323,137.71,-0.0078125,0,0.492188,-0.0078125,0,0,282,0
2017/01/13,14:17:47,47,125,-0.360718,0.932556,0.00726318,0.0131836,-1.70932,0.231323,137.71,-0.0078125,0,0.492188,-0.0078125,0,0,282,0
2017/01/13,14:17:47,47,143,-0.360779,0.932495,0.00762939,0.0132446,-1.73095,0.267822,137.702,-0.0078125,0,0.492188,-0.0078125,0,0,283,0
2017/01/13,14:17:47,47,176,-0.360779,0.932495,0.00762939,0.0132446,-1.73095,0.267822,137.702,-0.0078125,0,0.484375,-0.0078125,0,0,283,0
2017/01/13,14:17:47,47,209,-0.360901,0.932434,0.00811768,0.0136108,-1.79031,0.304642,137.687,-0.0078125,0,0.484375,-0.0078125,0,0,283,0
2017/01/13,14:17:47,47,226,-0.360901,0.932434,0.00811768,0.0136108,-1.79031,0.304642,137.687,-0.0078125,0,0.492188,-0.0078125,0,0,283,0
2017/01/13,14:17:47,47,243,-0.361145,0.932373,0.00836182,0.0140381,-1.84622,0.312592,137.658,-0.0078125,0,0.492188,-0.0078125,0,0,283,0
2017/01/13,14:17:47,47,294,-0.361145,0.932373,0.00836182,0.0140381,-1.84622,0.312592,137.658,-0.0078125,0,0.484375,-0.0078125,0,0,284,0
2017/01/13,14:17:47,47,295,-0.361328,0.932251,0.0088501,0.0145874,-1.92515,0.34166,137.634,-0.0078125,0,0.492188,-0.0078125,0,0,284,0
2017/01/13,14:17:47,47,326,-0.361328,0.932251,0.0088501,0.0145874,-1.92515,0.34166,137.634,-0.0078125,0,0.492188,-0.0078125,0,0,284,0
2017/01/13,14:17:47,47,360,-0.361511,0.93219,0.00921631,0.0151367,-1.99912,0.357666,137.613,-0.0078125,0,0.492188,-0.0078125,0,0,284,0
2017/01/13,14:17:47,47,375,-0.361511,0.93219,0.00921631,0.0151367,-1.99912,0.357666,137.613,-0.015625,0,0.492188,-0.0078125,0,0,284,0
2017/01/13,14:17:47,47,392,-0.362,0.931946,0.00976562,0.0158691,-2.10028,0.384918,137.551,-0.0234375,-0.0078125,0.5,-0.0078125,0,-0.0078125,284,0
2017/01/13,14:17:47,47,425,-0.362,0.931946,0.00976562,0.0158691,-2.10028,0.384918,137.551,-0.015625,-0.015625,0.59375,-0.0234375,-0.0078125,-0.0078125,284,0
2017/01/13,14:17:47,47,442,-0.364868,0.930542,0.0134888,0.0270386,-3.44924,0.308411,137.189,0.0078125,-0.0234375,0.609375,-0.046875,-0.0078125,-0.0078125,284,0
2017/01/13,14:17:47,47,475,-0.364868,0.930542,0.0134888,0.0270386,-3.44924,0.308411,137.189,-0.0234375,-0.0390625,0.65625,-0.0625,0,-0.0078125,284,0
2017/01/13,14:17:47,47,510,-0.366394,0.927246,0.0320435,0.0697632,-8.79249,0.481415,136.915,-0.03125,-0.0703125,0.6875,-0.0859375,-0.0078125,-0.0078125,285,0
2017/01/13,14:17:47,47,511,-0.366394,0.927246,0.0320435,0.0697632,-8.79249,0.481415,136.915,0.0078125,-0.109375,0.804688,-0.109375,-0.0078125,-0.0078125,285,0
2017/01/13,14:17:47,47,543,-0.365845,0.916931,0.059021,0.147827,-18.3173,0.00439453,136.498,-0.109375,-0.148438,0.960938,-0.148438,-0.015625,-0.0078125,286,0
2017/01/13,14:17:47,47,576,-0.365845,0.916931,0.059021,0.147827,-18.3173,0.00439453,136.498,-0.132812,-0.140625,0.992188,-0.21875,-0.015625,-0.0234375,287,0
2017/01/13,14:17:47,47,593,-0.362488,0.879272,0.104248,0.290833,-35.9458,-1.94826,134.559,-0.304688,-0.101562,0.992188,-0.257812,-0.03125,-0.03125,289,0
2017/01/13,14:17:47,47,623,-0.362488,0.879272,0.104248,0.290833,-35.9458,-1.94826,134.559,-0.46875,0.664062,0.992188,-0.265625,-0.015625,-0.046875,291,0
2017/01/13,14:17:47,47,763,-0.356934,0.797119,0.160889,0.459656,-57.9574,-7.76102,127.453,-0.4375,0.953125,0.851562,-0.289062,-0.0234375,-0.0546875,294,0
2017/01/13,14:17:47,47,764,-0.356934,0.797119,0.160889,0.459656,-57.9574,-7.76102,127.453,-0.414062,0.796875,0.914062,0.015625,-0.015625,-0.015625,297,0
2017/01/13,14:17:47,47,765,-0.360962,0.774109,0.159302,0.495056,-61.8188,-13.5641,121.856,-0.148438,0.304688,0.265625,0.117188,0,0,300,0.128953
2017/01/13,14:17:47,47,773,-0.360962,0.774109,0.159302,0.495056,-61.8188,-13.5641,121.856,-0.15625,0.179688,0.210938,0.0859375,0,0.0078125,303,0
2017/01/13,14:17:47,47,774,-0.372681,0.824158,0.131592,0.40564,-50.059,-7.64841,127.76,-0.117188,0.21875,0.328125,0.09375,0.03125,0.0078125,305,0
2017/01/13,14:17:47,47,775,-0.372681,0.824158,0.131592,0.40564,-50.059,-7.64841,127.76,-0.03125,0.210938,0.429688,0.117188,0.03125,0.0234375,306,0
2017/01/13,14:17:47,47,792,-0.38324,0.866516,0.122375,0.295471,-37.2907,-1.03654,131.933,-0.0859375,0.179688,0.539062,0.148438,0.0234375,0.03125,306,0
2017/01/13,14:17:47,47,827,-0.38324,0.866516,0.122375,0.295471,-37.2907,-1.03654,131.933,-0.140625,0.0625,0.632812,0.179688,0.0234375,0.0390625,304,0
2017/01/13,14:17:47,47,851,-0.374878,0.91217,0.090271,0.138489,-18.683,3.68341,135.923,-0.179688,-0.0234375,0.765625,0.179688,0.0234375,0.03125,300,0
2017/01/13,14:17:47,47,909,-0.374878,0.91217,0.090271,0.138489,-18.683,3.68341,135.923,-0.195312,-0.171875,0.953125,0.171875,0.0390625,0.0234375,295,0
2017/01/13,14:17:47,47,910,-0.364685,0.928589,0.0644531,-0.0227661,-0.270979,7.83466,137.136,-0.195312,-0.445312,0.992188,0.164062,0.046875,0,289,0
2017/01/13,14:17:47,47,927,-0.364685,0.928589,0.0644531,-0.0227661,-0.270979,7.83466,137.136,-0.164062,-0.890625,0.992188,0.171875,0.0546875,-0.015625,283,0
2017/01/13,14:17:47,47,959,-0.373962,0.912598,0.0626221,-0.153015,13.4411,13.6022,133.824,0,-1,0.992188,0.179688,0.0546875,-0.0078125,279,0
2017/01/13,14:17:47,47,977,-0.373962,0.912598,0.0626221,-0.153015,13.4411,13.6022,133.824,0.117188,-1,0.601562,0.117188,0.0546875,-0.015625,278,0
2017/01/13,14:17:48,48,10,-0.385132,0.887146,0.0721436,-0.243713,22.1386,19.9302,129.129,0.5625,-1,0.476562,0.0546875,0.0625,-0.03125,279,0
2017/01/13,14:17:48,48,26,-0.385132,0.887146,0.0721436,-0.243713,22.1386,19.9302,129.129,0.585938,-1,0.359375,0.0078125,0.0078125,-0.0234375,284,0
2017/01/13,14:17:48,48,43,-0.405273,0.87854,0.0908203,-0.235962,19.9372,21.9132,126.574,0.289062,-1,0.492188,-0.0625,-0.0234375,0,291,0
2017/01/13,14:17:48,48,75,-0.405273,0.87854,0.0908203,-0.235962,19.9372,21.9132,126.574,-0.140625,0.820312,-0.078125,-0.109375,-0.15625,0.0625,300,0.292899
2017/01/13,14:17:48,48,109,-0.391296,0.909607,0.0406494,-0.133545,12.1889,10.5201,132.321,0.367188,0.1875,0.992188,-0.148438,-0.15625,0.0234375,310,0
2017/01/13,14:17:48,48,110,-0.391296,0.909607,0.0406494,-0.133545,12.1889,10.5201,132.321,0,-0.046875,0.851562,-0.109375,-0.03125,-0.0078125,319,0
2017/01/13,14:17:48,48,144,-0.384216,0.923218,-0.00115967,0.00140381,-0.0974553,-0.184509,134.809,-0.015625,0.0078125,0.492188,-0.0234375,-0.0234375,0,327,0
2017/01/13,14:17:48,48,175,-0.384216,0.923218,-0.00115967,0.00140381,-0.0974553,-0.184509,134.809,-0.0078125,-0.0078125,0.5,-0.0078125,-0.0078125,0,331,0
2017/01/13,14:17:48,48,192,-0.384155,0.923157,-0.00439453,0.0133057,-1.21419,-1.05092,134.801,0,0,0.492188,-0.0078125,0,0,335,0
2017/01/13,14:17:48,48,227,-0.384155,0.923157,-0.00439453,0.0133057,-1.21419,-1.05092,134.801,-0.0078125,0,0.492188,-0.0078125,0,0,336,0
2017/01/13,14:17:48,48,259,-0.383911,0.923218,-0.00372314,0.0134277,-1.25687,-0.98497,134.83,0,0,0.492188,-0.0078125,0,0,336,0
2017/01/13,14:17:48,48,276,-0.383911,0.923218,-0.00372314,0.0134277,-1.25687,-0.98497,134.83,-0.0078125,0,0.492188,-0.0078125,0,0,335,0
2017/01/13,14:17:48,48,326,-0.38385,0.923279,-0.00274658,0.0134888,-1.30641,-0.884186,134.84,-0.0078125,0,0.484375,-0.0078125,0,0,334,0
2017/01/13,14:17:48,48,327,-0.38385,0.923279,-0.00274658,0.0134888,-1.30641,-0.884186,134.84,-0.0078125,0,0.484375,-0.0078125,0,0,334,0
2017/01/13,14:17:48,48,342,-0.38385,0.923279,-0.00140381,0.0136108,-1.37841,-0.747467,134.841,-0.0078125,0,0.484375,-0.0078125,0,0,334,0
2017/01/13,14:17:48,48,376,-0.38385,0.923279,-0.00140381,0.0136108,-1.37841,-0.747467,134.841,-0.0078125,0,0.484375,-0.0078125,0,0,334,0
2017/01/13,14:17:48,48,427,-0.383911,0.923218,-0.000427246,0.0137329,-1.4342,-0.649628,134.833,-0.0078125,0,0.492188,-0.0078125,0,0,334,0
2017/01/13,14:17:48,48,428,-0.383911,0.923218,-0.000427246,0.0137329,-1.4342,-0.649628,134.833,-0.0078125,0,0.492188,-0.0078125,0,0,334,0
2017/01/13,14:17:48,48,443,-0.384033,0.923157,0.000671387,0.0141602,-1.52767,-0.552383,134.818,-0.0078125,0,0.492188,-0.0078125,0,0,334,0
2017/01/13,14:17:48,48,475,-0.384033,0.923157,0.000671387,0.0141602,-1.52767,-0.552383,134.818,-0.0078125,-0.0078125,0.492188,-0.0078125,0,0,334,0
2017/01/13,14:17:48,48,526,-0.384277,0.923096,0.00244141,0.0145874,-1.65078,-0.384277,134.791,-0.0234375,0,0.492188,-0.0078125,0,0,334,0
2017/01/13,14:17:48,48,542,-0.384277,0.923096,0.00244141,0.0145874,-1.65078,-0.384277,134.791,-0.015625,0,0.507812,-0.0078125,0,-0.0078125,334,0
2017/01/13,14:17:48,48,559,-0.385803,0.922424,0.00714111,0.0163574,-2.04515,0.0316925,134.606,-0.015625,-0.0078125,0.5625,-0.03125,0,-0.0078125,334,0
2017/01/13,14:17:48,48,576,-0.385803,0.922424,0.00714111,0.0163574,-2.04515,0.0316925,134.606,-0.0078125,-0.0234375,0.59375,-0.046875,0,-0.0078125,334,0
2017/01/13,14:17:48,48,626,-0.387451,0.920654,0.0217285,0.0419922,-5.40286,0.429871,134.373,-0.015625,-0.046875,0.632812,-0.0625,0,0,334,0
2017/01/13,14:17:48,48,642,-0.387451,0.920654,0.0217285,0.0419922,-5.40286,0.429871,134.373,-0.03125,-0.078125,0.632812,-0.078125,0,-0.0078125,333,0
2017/01/13,14:17:48,48,643,-0.386475,0.916321,0.0484619,0.0926514,-11.9616,1.0074,134.369,-0.046875,-0.078125,0.6875,-0.09375,-0.0078125,-0.0078125,333,0
2017/01/13,14:17:48,48,676,-0.386475,0.916321,0.0484619,0.0926514,-11.9616,1.0074,134.369,0.015625,-0.15625,0.921875,-0.132812,0,-0.0078125,332,0
2017/01/13,14:17:48,48,710,-0.383057,0.903137,0.0822144,0.17572,-22.3575,0.859909,134.202,-0.0859375,-0.148438,0.992188,-0.1875,-0.0078125,-0.0078125,330,0
2017/01/13,14:17:48,48,711,-0.383057,0.903137,0.0822144,0.17572,-22.3575,0.859909,134.202,-0.203125,-0.132812,0.992188,-0.234375,-0.015625,-0.015625,328,0
2017/01/13,14:17:48,48,760,-0.370239,0.858521,0.138916,0.326355,-41.5466,-0.239975,133.252,-0.335938,0.265625,0.992188,-0.257812,-0.0234375,-0.0234375,324,0
2017/01/13,14:17:48,48,776,-0.370239,0.858521,0.138916,0.326355,-41.5466,-0.239975,133.252,-0.351562,0.882812,0.976562,-0.289062,-0.0234375,-0.046875,320,0
2017/01/13,14:17:48,48,810,-0.350586,0.773682,0.195007,0.490356,-63.5718,-5.42558,127.882,-0.351562,0.890625,0.398438,-0.257812,-0.03125,-0.046875,315,0.113637
2017/01/13,14:17:48,48,827,-0.350586,0.773682,0.195007,0.490356,-63.5718,-5.42558,127.882,-0.148438,0.578125,0.53125,0.109375,0.0078125,-0.0234375,311,0
2017/01/13,14:17:48,48,928,-0.371582,0.779663,0.177856,0.471558,-60.1681,-8.45287,124.132,-0.078125,0.179688,0.273438,0.117188,-0.0078125,-0.0234375,310,0
2017/01/13,14:17:48,48,930,-0.371582,0.779663,0.177856,0.471558,-60.1681,-8.45287,124.132,-0.171875,0.171875,0.265625,0.101562,-0.015625,-0.015625,311,0
2017/01/13,14:17:48,48,940,-0.398132,0.824036,0.127686,0.382263,-47.0265,-7.92229,124.974,-0.171875,0.195312,0.390625,0.109375,0.0078125,-0.0078125,312,0
2017/01/13,14:17:48,48,941,-0.398132,0.824036,0.127686,0.382263,-47.0265,-7.92229,124.974,-0.148438,0.164062,0.476562,0.140625,0.015625,0.015625,315,0
2017/01/13,14:17:48,48,956,-0.410339,0.867859,0.0957642,0.263123,-32.3641,-3.37474,128.409,-0.203125,0.0859375,0.5625,0.164062,0.0234375,0.0390625,319,0
2017/01/13,14:17:48,48,957,-0.410339,0.867859,0.0957642,0.263123,-32.3641,-3.37474,128.409,-0.226562,0.0078125,0.679688,0.171875,0.03125,0.0546875,323,0
2017/01/13,14:17:49,49,10,-0.387207,0.913635,0.0682373,0.103394,-13.9911,2.63553,134.388,-0.203125,-0.132812,0.804688,0.171875,0.0390625,0.046875,327,0
2017/01/13,14:17:49,49,26,-0.387207,0.913635,0.0682373,0.103394,-13.9911,2.63553,134.388,-0.210938,-0.265625,0.992188,0.15625,0.0390625,0.0390625,329,0
2017/01/13,14:17:49,49,42,-0.359009,0.930481,0.053894,-0.0485229,2.95792,7.77731,137.603,-0.21875,-0.460938,0.992188,0.171875,0.046875,0.015625,326,0
2017/01/13,14:17:49,49,92,-0.359009,0.930481,0.053894,-0.0485229,2.95792,7.77731,137.603,-0.101562,-0.992188,0.992188,0.203125,0.046875,0,322,0
2017/01/13,14:17:49,49,109,-0.358826,0.913269,0.046936,-0.187134,17.9462,13.3719,134.979,-0.0546875,-1,0.921875,0.15625,0.0390625,-0.0078125,316,0
2017/01/13,14:17:49,49,143,-0.358826,0.913269,0.046936,-0.187134,17.9462,13.3719,134.979,0.15625,-1,0.554688,0.09375,0.0546875,-0.03125,309,0
2017/01/13,14:17:49,49,159,-0.374695,0.888306,0.0592651,-0.258789,24.5417,19.2053,130.044,0.578125,-1,0.398438,0.03125,0.046875,-0.046875,301,0
2017/01/13,14:17:49,49,159,-0.374695,0.888306,0.0592651,-0.258789,24.5417,19.2053,130.044,0.578125,-1,0.398438,0.03125,0.046875,-0.046875,301,0
2017/01/13,14:17:49,49,172,-0.374695,0.888306,0.0592651,-0.258789,24.5417,19.2053,130.044,0.5625,-1,0.414062,-0.03125,0,-0.015625,294,0
2017/01/13,14:17:49,49,193,-0.398315,0.885681,0.0803833,-0.224426,19.4816,19.9201,128.117,-0.6875,0.0625,0,-0.09375,-0.0703125,0.03125,289,0.237779
2017/01/13,14:17:49,49,226,-0.398315,0.885681,0.0803833,-0.224426,19.4816,19.9201,128.117,0.0859375,0.109375,0.796875,-0.101562,-0.226562,0.0390625,284,0
2017/01/13,14:17:49,49,256,-0.383423,0.918762,-0.0116577,-0.0934448,10.4074,2.92773,134.429,0.3125,-0.0625,0.992188,-0.171875,-0.046875,0.0078125,282,0
2017/01/13,14:17:49,49,277,-0.383423,0.918762,-0.0116577,-0.0934448,10.4074,2.92773,134.429,0.0078125,-0.015625,0.570312,-0.046875,-0.03125,-0.0078125,282,0
2017/01/13,14:17:49,49,309,-0.384155,0.923096,-0.0134888,0.00927734,-0.387562,-1.83568,134.804,0,-0.015625,0.492188,-0.0078125,0,0,282,0
2017/01/13,14:17:49,49,327,-0.384155,0.923096,-0.0134888,0.00927734,-0.387562,-1.83568,134.804,0.0078125,0,0.492188,-0.0078125,0,0,284,0
2017/01/13,14:17:49,49,344,-0.383789,0.923279,-0.012146,0.0109863,-0.628197,-1.76859,134.847,0,0.0078125,0.492188,-0.0078125,0,0,286,0
2017/01/13,14:17:49,49,376,-0.383789,0.923279,-0.012146,0.0109863,-0.628197,-1.76859,134.847,0.0078125,0,0.492188,-0.0078125,0,0,288,0
2017/01/13,14:17:49,49,443,-0.383606,0.92334,-0.0111694,0.0113525,-0.71021,-1.68127,134.868,0,0.0078125,0.492188,-0.0078125,0,0,289,0
2017/01/13,14:17:49,49,444,-0.383606,0.92334,-0.0111694,0.0113525,-0.71021,-1.68127,134.868,0,0.0078125,0.484375,-0.0078125,0,0,291,0
2017/01/13,14:17:49,49,476,-0.383606,0.92334,-0.00970459,0.0117798,-0.819817,-1.54506,134.868,0,0,0.484375,-0.0078125,0,0,292,0
2017/01/13,14:17:49,49,477,-0.383606,0.92334,-0.00970459,0.0117798,-0.819817,-1.54506,134.868,0,0,0.484375,-0.0078125,0,0,292,0
2017/01/13,14:17:49,49,493,-0.383789,0.923279,-0.00805664,0.0123291,-0.950139,-1.395,134.845,0,0,0.484375,-0.0078125,0,0,292,0
2017/01/13,14:17:49,49,526,-0.383789,0.923279,-0.00805664,0.0123291,-0.950139,-1.395,134.845,0,0,0.484375,-0.0078125,0,0,292,0
2017/01/13,14:17:49,49,559,-0.384033,0.923218,-0.00653076,0.0128174,-1.06865,-1.25526,134.816,0,0,0.484375,-0.0078125,0,0,292,0
2017/01/13,14:17:49,49,577,-0.384033,0.923218,-0.00653076,0.0128174,-1.06865,-1.25526,134.816,-0.0078125,0,0.492188,-0.0078125,0,0,293,0
2017/01/13,14:17:49,49,627,-0.384277,0.923096,-0.00494385,0.0133057,-1.18984,-1.10921,134.785,0,0,0.492188,-0.0078125,0,0,293,0
2017/01/13,14:17:49,49,628,-0.384277,0.923096,-0.00494385,0.0133057,-1.18984,-1.10921,134.785,-0.0078125,0,0.492188,-0.0078125,0,0,293,0
2017/01/13,14:17:49,49,642,-0.384766,0.922913,-0.00170898,0.0140991,-1.41589,-0.802643,134.727,-0.0078125,0,0.492188,-0.0078125,0,-0.0078125,293,0
2017/01/13,14:17:49,49,676,-0.384766,0.922913,-0.00170898,0.0140991,-1.41589,-0.802643,134.727,-0.015625,-0.0078125,0.523438,-0.015625,0,-0.0078125,293,0
2017/01/13,14:17:49,49,710,-0.386169,0.922241,0.00372314,0.0184937,-2.11967,-0.425201,134.551,-0.0078125,-0.0078125,0.5625,-0.03125,0,-0.0078125,293,0
2017/01/13,14:17:49,49,776,-0.386169,0.922241,0.00372314,0.0184937,-2.11967,-0.425201,134.551,0,-0.0234375,0.585938,-0.046875,0.0078125,-0.0078125,293,0
2017/01/13,14:17:49,49,777,-0.38739,0.920715,0.0209961,0.0422974,-5.40269,0.339066,134.378,-0.03125,-0.0390625,0.632812,-0.0625,0.0078125,-0.0078125,294,0
2017/01/13,14:17:49,49,778,-0.38739,0.920715,0.0209961,0.0422974,-5.40269,0.339066,134.378,-0.03125,-0.0625,0.640625,-0.078125,0,-0.0078125,294,0
2017/01/13,14:17:49,49,792,-0.387146,0.916321,0.0480957,0.090271,-11.6934,1.06764,134.301,-0.015625,-0.101562,0.75,-0.09375,0,-0.0078125,295,0
2017/01/13,14:17:49,49,843,-0.387146,0.916321,0.0480957,0.090271,-11.6934,1.06764,134.301,-0.046875,-0.132812,0.945312,-0.132812,-0.0078125,-0.0078125,296,0
2017/01/13,14:17:49,49,859,-0.383545,0.903076,0.0836182,0.174072,-22.2435,1.0833,134.19,-0.078125,-0.164062,0.992188,-0.195312,-0.015625,-0.015625,298,0
2017/01/13,14:17:49,49,876,-0.383545,0.903076,0.0836182,0.174072,-22.2435,1.0833,134.19,-0.1875,-0.140625,0.992188,-0.242188,-0.0234375,-0.0234375,301,0
2017/01/13,14:17:49,49,928,-0.371399,0.857605,0.137878,0.327881,-41.667,-0.541458,132.962,-0.34375,0.28125,0.992188,-0.25,-0.0234375,-0.03125,304,0
2017/01/13,14:17:49,49,929,-0.371399,0.857605,0.137878,0.327881,-41.667,-0.541458,132.962,-0.296875,0.8125,0.875,-0.289062,-0.03125,-0.046875,308,0.0731704
2017/01/13,14:17:49,49,939,-0.351624,0.775024,0.188782,0.489868,-63.1358,-6.5952,127.137,-0.414062,0.8125,0.9375,-0.195312,-0.0390625,-0.046875,313,0
2017/01/13,14:17:49,49,976,-0.351624,0.775024,0.188782,0.489868,-63.1358,-6.5952,127.137,-0.1875,0.507812,0.5,0.109375,0,-0.0234375,318,0
2017/01/13,14:17:50,50,26,-0.367981,0.789551,0.160339,0.464172,-58.3183,-9.69354,124.605,-0.0703125,0.179688,0.210938,0.109375,-0.0078125,-0.0234375,323,0
2017/01/13,14:17:50,50,106,-0.367981,0.789551,0.160339,0.464172,-58.3183,-9.69354,124.605,-0.15625,0.171875,0.25,0.09375,-0.015625,-0.015625,328,0
2017/01/13,14:17:50,50,127,-0.390869,0.829224,0.116333,0.38208,-46.4357,-8.82875,125.731,-0.195312,0.195312,0.351562,0.101562,0,0.0078125,334,0
2017/01/13,14:17:50,50,128,-0.390869,0.829224,0.116333,0.38208,-46.4357,-8.82875,125.731,-0.234375,0.179688,0.460938,0.132812,0.0078125,0.03125,338,0
2017/01/13,14:17:50,50,129,-0.390686,0.875488,0.0846558,0.271545,-32.7938,-4.36269,130.618,-0.25,0.09375,0.546875,0.164062,0.015625,0.046875,341,0
2017/01/13,14:17:50,50,141,-0.390686,0.875488,0.0846558,0.271545,-32.7938,-4.36269,130.618,-0.25,0.0078125,0.671875,0.171875,0.0234375,0.046875,343,0
2017/01/13,14:17:50,50,159,-0.365845,0.921997,0.0588379,0.112,-14.4525,1.57111,136.913,-0.265625,-0.101562,0.84375,0.171875,0.03125,0.0390625,342,0
2017/01/13,14:17:50,50,193,-0.365845,0.921997,0.0588379,0.112,-14.4525,1.57111,136.913,-0.28125,-0.273438,0.992188,0.171875,0.0390625,0.015625,336,0
2017/01/13,14:17:50,50,226,-0.344849,0.936462,0.0443115,-0.0459595,3.18253,6.59625,139.384,-0.234375,-0.585938,0.992188,0.171875,0.0546875,-0.0078125,328,0
2017/01/13,14:17:50,50,242,-0.344849,0.936462,0.0443115,-0.0459595,3.18253,6.59625,139.384,-0.0859375,-1,0.992188,0.195312,0.0546875,-0.0078125,319,0
2017/01/13,14:17:50,50,243,-0.352783,0.915894,0.0475464,-0.185364,17.8183,13.2309,135.785,-0.0234375,-1,0.867188,0.140625,0.046875,-0.015625,313,0
2017/01/13,14:17:50,50,275,-0.352783,0.915894,0.0475464,-0.185364,17.8183,13.2309,135.785,0.421875,-1,0.601562,0.0703125,0.0703125,-0.046875,310,0
2017/01/13,14:17:50,50,325,-0.373596,0.888733,0.0734863,-0.255127,23.4889,20.5063,130.091,0.710938,-1,0.429688,0.015625,0.03125,-0.0546875,307,0
2017/01/13,14:17:50,50,326,-0.373596,0.888733,0.0734863,-0.255127,23.4889,20.5063,130.091,-0.226562,-1,0.421875,-0.0390625,-0.015625,-0.03125,305,0
2017/01/13,14:17:50,50,375,-0.409546,0.882446,0.0893555,-0.213562,17.6814,20.4329,126.996,0.046875,0.765625,0.671875,-0.101562,-0.195312,0.0546875,306,0.268022
2017/01/13,14:17:50,50,376,-0.409546,0.882446,0.0893555,-0.213562,17.6814,20.4329,126.996,0.367188,-0.03125,0.601562,-0.140625,-0.125,0.03125,312,0
2017/01/13,14:17:50,50,393,-0.389648,0.91803,-0.0153809,-0.0714111,8.22735,1.58713,133.889,0.09375,-0.03125,0.898438,-0.125,-0.03125,0,319,0
2017/01/13,14:17:50,50,427,-0.389648,0.91803,-0.0153809,-0.0714111,8.22735,1.58713,133.889,0.0078125,0.0078125,0.492188,-0.015625,-0.0078125,0,326,0
2017/01/13,14:17:50,50,460,-0.385864,0.922485,-0.00714111,0.00421143,-0.129429,-0.941193,134.601,0,0,0.5,-0.0078125,-0.0078125,0,331,0
2017/01/13,14:17:50,50,475,-0.385864,0.922485,-0.00714111,0.00421143,-0.129429,-0.941193,134.601,0,0,0.492188,-0.0078125,0,0,333,0
2017/01/13,14:17:50,50,525,-0.385437,0.922668,-0.00561523,0.00811768,-0.610281,-0.952362,134.65,0,0,0.492188,-0.0078125,0,0,334,0
2017/01/13,14:17:50,50,542,-0.385315,0.922729,-0.00500488,0.00866699,-0.695454,-0.911987,134.665,0,0,0.492188,-0.0078125,0,0,335,0
2017/01/13,14:17:50,50,543,-0.385315,0.922729,-0.00500488,0.00866699,-0.695454,-0.911987,134.665,0,0,0.492188,-0.0078125,0,0,335,0
2017/01/13,14:17:50,50,593,-0.385315,0.922729,-0.00421143,0.00921631,-0.788579,-0.852341,134.665,0,0,0.492188,-0.0078125,0,0,335,0
2017/01/13,14:17:50,50,610,-0.385315,0.922729,-0.00421143,0.00921631,-0.788579,-0.852341,134.665,0,0,0.492188,-0.0078125,0,0,335,0
2017/01/13,14:17:50,50,626,-0.385437,0.922668,-0.00354004,0.00976562,-0.876198,-0.805756,134.649,0,0,0.492188,-0.0078125,0,0,335,0
2017/01/13,14:17:50,50,661,-0.385437,0.922668,-0.00354004,0.00976562,-0.876198,-0.805756,134.649,0,0,0.492188,-0.0078125,0,0,335,0
2017/01/13,14:17:50,50,674,-0.385559,0.922607,-0.00268555,0.0101929,-0.959014,-0.734406,134.634,0,0,0.492188,-0.0078125,0,0,335,0
2017/01/13,14:17:50,50,690,-0.385559,0.922607,-0.00268555,0.0101929,-0.959014,-0.734406,134.634,0,0,0.484375,-0.0078125,0,0,335,0
2017/01/13,14:17:50,50,726,-0.385742,0.922546,-0.00158691,0.0106812,-1.05908,-0.64003,134.612,0,0,0.492188,-0.0078125,0,0,335,0
2017/01/13,14:17:50,50,759,-0.385742,0.922546,-0.00158691,0.0106812,-1.05908,-0.64003,134.612,-0.0078125,0,0.492188,-0.0078125,0,0,335,0
2017/01/13,14:17:50,50,794,-0.386292,0.922302,6.10352E-05,0.0114136,-1.20907,-0.498901,134.544,-0.0078125,0.0078125,0.492188,-0.0078125,0,-0.0078125,335,0
2017/01/13,14:17:50,50,795,-0.386292,0.922302,6.10352E-05,0.0114136,-1.20907,-0.498901,134.544,-0.0078125,0,0.523438,-0.0078125,0,-0.0078125,335,0
2017/01/13,14:17:50,50,877,-0.388184,0.921387,0.00457764,0.0174561,-2.04713,-0.293365,134.303,-0.0078125,-0.0078125,0.554688,-0.0234375,0,-0.0078125,335,0
2017/01/13,14:17:50,50,892,-0.388184,0.921387,0.00457764,0.0174561,-2.04713,-0.293365,134.303,0,-0.015625,0.578125,-0.046875,0.0078125,-0.0078125,335,0
2017/01/13,14:17:50,50,893,-0.389099,0.919495,0.0258179,0.0492554,-6.35403,0.527435,134.156,-0.0078125,-0.0390625,0.601562,-0.0546875,0.0078125,-0.0078125,335,0
2017/01/13,14:17:50,50,909,-0.389099,0.919495,0.0258179,0.0492554,-6.35403,0.527435,134.156,-0.015625,-0.0625,0.617188,-0.0703125,0,-0.0078125,335,0
2017/01/13,14:17:50,50,944,-0.387878,0.91449,0.0529785,0.102112,-13.171,1.0406,134.152,-0.03125,-0.09375,0.726562,-0.0859375,0,-0.0078125,336,0
2017/01/13,14:17:50,50,957,-0.387878,0.91449,0.0529785,0.102112,-13.171,1.0406,134.152,-0.046875,-0.140625,0.851562,-0.117188,0,-0.0078125,336,0
2017/01/13,14:17:50,50,977,-0.383118,0.898743,0.092041,0.1922,-24.5824,1.14513,134.074,-0.0859375,-0.148438,0.992188,-0.171875,-0.0078125,-0.015625,337,0
2017/01/13,14:17:51,51,42,-0.383118,0.898743,0.092041,0.1922,-24.5824,1.14513,134.074,-0.148438,-0.234375,0.992188,-0.226562,-0.015625,-0.015625,338,0
2017/01/13,14:17:51,51,79,-0.369934,0.847839,0.151245,0.348328,-44.6322,-0.100952,132.813,-0.234375,0.03125,0.992188,-0.242188,-0.015625,-0.0234375,339,0
2017/01/13,14:17:51,51,80,-0.369934,0.847839,0.151245,0.348328,-44.6322,-0.100952,132.813,-0.234375,0.859375,0.84375,-0.265625,-0.0078125,-0.03125,341,0
2017/01/13,14:17:51,51,90,-0.369934,0.847839,0.151245,0.348328,-44.6322,-0.100952,132.813,-0.28125,0.992188,0.710938,-0.28125,-0.015625,-0.0390625,343,0
2017/01/13,14:17:51,51,91,-0.350098,0.762634,0.206299,0.503174,-65.7727,-5.26791,127.276,-0.234375,0.640625,0.804688,0.0703125,-0.015625,-0.015625,346,0
2017/01/13,14:17:51,51,126,-0.366638,0.795715,0.17041,0.450867,-57.403,-6.33383,127.052,-0.09375,0.234375,0.28125,0.125,-0.015625,-0.0078125,348,0
2017/01/13,14:17:51,51,159,-0.366638,0.795715,0.17041,0.450867,-57.403,-6.33383,127.052,-0.101562,0.140625,0.226562,0.101562,-0.0234375,-0.015625,351,0
2017/01/13,14:17:51,51,210,-0.380981,0.839539,0.117249,0.36908,-45.1578,-6.87143,128.323,-0.171875,0.1875,0.320312,0.101562,-0.015625,-0.0078125,354,0
2017/01/13,14:17:51,51,225,-0.380981,0.839539,0.117249,0.36908,-45.1578,-6.87143,128.323,-0.171875,0.179688,0.429688,0.125,-0.0078125,0,356,0
2017/01/13,14:17:51,51,243,-0.384033,0.884399,0.074646,0.254456,-30.4917,-4.21991,131.905,-0.234375,0.125,0.515625,0.148438,0,0.0234375,358,0
2017/01/13,14:17:51,51,276,-0.384033,0.884399,0.074646,0.254456,-30.4917,-4.21991,131.905,-0.273438,0.03125,0.59375,0.171875,0.0078125,0.0390625,359,0
2017/01/13,14:17:51,51,277,-0.362915,0.925598,0.0427856,0.0983276,-12.3028,0.459534,137.231,-0.265625,-0.0390625,0.742188,0.171875,0.0234375,0.0390625,358,0
2017/01/13,14:17:51,51,311,-0.362915,0.925598,0.0427856,0.0983276,-12.3028,0.459534,137.231,-0.234375,-0.195312,0.921875,0.171875,0.0390625,0.03125,357,0
2017/01/13,14:17:51,51,343,-0.343628,0.937073,0.0335083,-0.0515137,4.21592,5.65123,139.515,-0.226562,-0.460938,0.992188,0.148438,0.0390625,0.015625,354,0
2017/01/13,14:17:51,51,359,-0.343628,0.937073,0.0335083,-0.0515137,4.21592,5.65123,139.515,-0.15625,-0.882812,0.992188,0.164062,0.046875,-0.015625,350,0
2017/01/13,14:17:51,51,411,-0.354919,0.918884,0.039978,-0.167297,16.2051,11.5486,136.112,-0.0078125,-1,0.992188,0.164062,0.046875,-0.015625,344,0
2017/01/13,14:17:51,51,412,-0.354919,0.918884,0.039978,-0.167297,16.2051,11.5486,136.112,-0.03125,-1,0.601562,0.109375,0.0390625,-0.0234375,336,0
2017/01/13,14:17:51,51,427,-0.378662,0.896179,0.0617676,-0.222778,20.6416,17.3738,131.001,0.296875,-1,0.5,0.0546875,0.0625,-0.046875,327,0
2017/01/13,14:17:51,51,477,-0.378662,0.896179,0.0617676,-0.222778,20.6416,17.3738,131.001,0.601562,-1,0.398438,-0.0078125,0.0234375,-0.0390625,318,0
2017/01/13,14:17:51,51,494,-0.407715,0.888733,0.0893555,-0.189575,15.3135,18.9625,128.14,0.210938,-0.5625,0.71875,-0.0703125,-0.0546875,0,309,0.1649
2017/01/13,14:17:51,51,510,-0.407715,0.888733,0.0893555,-0.189575,15.3135,18.9625,128.14,0.265625,0.3125,0.953125,-0.0859375,-0.195312,0.046875,302,0
2017/01/13,14:17:51,51,543,-0.389771,0.918701,0.000427246,-0.0637207,6.70443,2.91222,133.85,0.273438,0.0078125,0.84375,-0.140625,-0.0546875,0.015625,295,0
2017/01/13,14:17:51,51,575,-0.389771,0.918701,0.000427246,-0.0637207,6.70443,2.91222,133.85,-0.0390625,-0.0390625,0.695312,-0.0703125,-0.03125,-0.0078125,289,0
2017/01/13,14:17:51,51,576,-0.386719,0.922119,0.00732422,0.00775146,-1.14372,0.430527,134.5,0.0078125,0,0.492188,-0.0078125,-0.0078125,0,286,0
2017/01/13,14:17:51,51,610,-0.386719,0.922119,0.00732422,0.00775146,-1.14372,0.430527,134.5,-0.0078125,0,0.492188,-0.0078125,0,0,285,0
2017/01/13,14:17:51,51,643,-0.38623,0.922302,0.00775146,0.00952148,-1.3495,0.397949,134.56,-0.0078125,0,0.492188,-0.0078125,0,0,285,0
2017/01/13,14:17:51,51,660,-0.38623,0.922302,0.00775146,0.00952148,-1.3495,0.397949,134.56,-0.0078125,0,0.492188,-0.0078125,0,0,286,0
2017/01/13,14:17:51,51,709,-0.386108,0.922363,0.00793457,0.00970459,-1.37692,0.409393,134.576,-0.0078125,0,0.492188,-0.0078125,0,0,287,0
2017/01/13,14:17:51,51,726,-0.386108,0.922363,0.00793457,0.00970459,-1.37692,0.409393,134.576,-0.0078125,0,0.492188,-0.0078125,0,0,288,0
2017/01/13,14:17:51,51,727,-0.386108,0.922302,0.00872803,0.00982666,-1.42488,0.487869,134.574,-0.0078125,0,0.484375,-0.0078125,0,0,288,0
2017/01/13,14:17:51,51,777,-0.386108,0.922302,0.00872803,0.00982666,-1.42488,0.487869,134.574,-0.0078125,0,0.492188,-0.0078125,0,0,289,0
2017/01/13,14:17:51,51,826,-0.38623,0.922302,0.00946045,0.0100708,-1.48324,0.554321,134.562,-0.0078125,0,0.492188,-0.0078125,0,0,289,0
2017/01/13,14:17:51,51,827,-0.38623,0.922302,0.00946045,0.0100708,-1.48324,0.554321,134.562,-0.0078125,0,0.484375,-0.0078125,0,0,289,0
2017/01/13,14:17:51,51,843,-0.386292,0.922241,0.0101929,0.0102539,-1.53502,0.623566,134.554,-0.0078125,0,0.492188,-0.0078125,0,0,289,0
2017/01/13,14:17:51,51,926,-0.386292,0.922241,0.0101929,0.0102539,-1.53502,0.623566,134.554,-0.0078125,0,0.492188,-0.0078125,0,0,289,0
2017/01/13,14:17:51,51,927,-0.386414,0.92218,0.0112915,0.010498,-1.60957,0.728699,134.541,-0.0078125,0,0.492188,-0.0078125,0,0,289,0
2017/01/13,14:17:51,51,928,-0.386414,0.92218,0.0112915,0.010498,-1.60957,0.728699,134.541,-0.015625,0,0.492188,-0.0078125,0,0,290,0
2017/01/13,14:17:51,51,942,-0.386719,0.921997,0.0131226,0.0109253,-1.73608,0.902817,134.504,-0.0234375,0.0078125,0.5,-0.0078125,0,0,290,0
2017/01/13,14:17:51,51,960,-0.386719,0.921997,0.0131226,0.0109253,-1.73608,0.902817,134.504,-0.015625,0,0.523438,-0.0078125,0,-0.0078125,290,0
2017/01/13,14:17:52,52,11,-0.38855,0.921143,0.0172729,0.0150757,-2.36105,1.15306,134.282,-0.015625,-0.015625,0.570312,-0.03125,0,-0.0078125,289,0
2017/01/13,14:17:52,52,27,-0.38855,0.921143,0.0172729,0.0150757,-2.36105,1.15306,134.282,0,-0.0234375,0.601562,-0.0546875,0,-0.0078125,290,0
2017/01/13,14:17:52,52,29,-0.389099,0.91925,0.0335083,0.0490723,-6.67835,1.35106,134.195,-0.0234375,-0.046875,0.625,-0.0625,0,0,290,0
2017/01/13,14:17:52,52,77,-0.389099,0.91925,0.0335083,0.0490723,-6.67835,1.35106,134.195,-0.03125,-0.0703125,0.648438,-0.078125,0,-0.0078125,290,0
2017/01/13,14:17:52,52,93,-0.387451,0.913696,0.0604858,0.106445,-13.9685,1.65625,134.244,-0.0390625,-0.109375,0.734375,-0.101562,-0.0078125,-0.0078125,291,0
2017/01/13,14:17:52,52,109,-0.387451,0.913696,0.0604858,0.106445,-13.9685,1.65625,134.244,-0.0546875,-0.140625,0.960938,-0.132812,-0.0078125,-0.0078125,292,0
2017/01/13,14:17:52,52,210,-0.382324,0.895813,0.0977783,0.204346,-26.1599,1.20848,134.056,-0.078125,-0.148438,0.992188,-0.195312,-0.015625,-0.015625,293,0
2017/01/13,14:17:52,52,211,-0.382324,0.895813,0.0977783,0.204346,-26.1599,1.20848,134.056,-0.242188,-0.210938,0.992188,-0.242188,-0.015625,-0.0234375,295,0
2017/01/13,14:17:52,52,227,-0.369812,0.839478,0.162231,0.363464,-46.9057,0.297974,132.58,-0.28125,0.328125,0.992188,-0.257812,0.0078125,-0.0390625,298,0
2017/01/13,14:17:52,52,228,-0.369812,0.839478,0.162231,0.363464,-46.9057,0.297974,132.58,-0.226562,0.851562,0.867188,-0.289062,-0.0234375,-0.0546875,301,0.0769709
2017/01/13,14:17:52,52,242,-0.357727,0.750305,0.207153,0.515808,-67.2551,-8.66087,123.251,-0.273438,0.851562,0.476562,-0.234375,-0.046875,-0.0546875,305,0
2017/01/13,14:17:52,52,260,-0.357727,0.750305,0.207153,0.515808,-67.2551,-8.66087,123.251,-0.1875,0.5,0.5,0.109375,-0.0078125,-0.015625,309,0
2017/01/13,14:17:52,52,289,-0.379944,0.794373,0.162231,0.44519,-56.1575,-8.31903,124.433,-0.101562,0.179688,0.21875,0.109375,-0.0078125,-0.0234375,313,0
2017/01/13,14:17:52,52,326,-0.379944,0.794373,0.162231,0.44519,-56.1575,-8.31903,124.433,-0.171875,0.179688,0.265625,0.09375,0,-0.015625,316,0
2017/01/13,14:17:52,52,327,-0.403259,0.832825,0.122253,0.358887,-44.1372,-6.86823,125.539,-0.148438,0.195312,0.382812,0.109375,0.015625,0,319,0
2017/01/13,14:17:52,52,360,-0.403259,0.832825,0.122253,0.358887,-44.1372,-6.86823,125.539,-0.171875,0.15625,0.460938,0.140625,0.0078125,0.0234375,321,0
2017/01/13,14:17:52,52,393,-0.40271,0.881226,0.0897827,0.23053,-28.5947,-1.79074,130.424,-0.242188,0.0859375,0.546875,0.164062,0.0078125,0.046875,323,0
2017/01/13,14:17:52,52,459,-0.40271,0.881226,0.0897827,0.23053,-28.5947,-1.79074,130.424,-0.273438,0.03125,0.6875,0.171875,0.0234375,0.0546875,324,0
2017/01/13,14:17:52,52,460,-0.374756,0.922729,0.0611572,0.0663452,-9.68756,3.67226,136.103,-0.242188,-0.109375,0.828125,0.179688,0.03125,0.046875,323,0
2017/01/13,14:17:52,52,476,-0.374756,0.922729,0.0611572,0.0663452,-9.68756,3.67226,136.103,-0.25,-0.328125,0.992188,0.164062,0.0390625,0.03125,321,0
2017/01/13,14:17:52,52,493,-0.355469,0.929871,0.0501099,-0.0803223,6.53174,8.70114,137.661,-0.257812,-0.523438,0.992188,0.15625,0.046875,0,318,0
2017/01/13,14:17:52,52,509,-0.355469,0.929871,0.0501099,-0.0803223,6.53174,8.70114,137.661,-0.117188,-1,0.992188,0.195312,0.0546875,-0.015625,315,0
2017/01/13,14:17:52,52,542,-0.36792,0.904663,0.0480957,-0.209412,20.0905,14.8774,133.088,-0.140625,-1,0.859375,0.148438,0.0390625,-0.015625,310,0
2017/01/13,14:17:52,52,559,-0.36792,0.904663,0.0480957,-0.209412,20.0905,14.8774,133.088,0.265625,-1,0.609375,0.078125,0.078125,-0.0546875,305,0
2017/01/13,14:17:52,52,609,-0.402283,0.87384,0.088501,-0.258301,22.3475,23.075,125.943,0.828125,-1,0.4375,0.03125,0.0546875,-0.0625,300,0
2017/01/13,14:17:52,52,626,-0.402283,0.87384,0.088501,-0.258301,22.3475,23.075,125.943,0.59375,-1,0.453125,-0.0234375,-0.0234375,-0.03125,296,0
2017/01/13,14:17:52,52,659,-0.432434,0.875183,0.0906372,-0.197144,15.4671,19.9689,124.672,-0.804688,0.484375,0.179688,-0.0859375,-0.09375,0.0234375,293,0.292912
2017/01/13,14:17:52,52,660,-0.432434,0.875183,0.0906372,-0.197144,15.4671,19.9689,124.672,0.429688,0.328125,0.992188,-0.09375,-0.203125,0.0390625,291,0
2017/01/13,14:17:52,52,693,-0.410522,0.90979,-0.000793457,-0.0613403,6.44591,2.82182,131.269,0.304688,-0.03125,0.992188,-0.171875,-0.0546875,0.015625,291,0
2017/01/13,14:17:52,52,726,-0.410522,0.90979,-0.000793457,-0.0613403,6.44591,2.82182,131.269,-0.0234375,0.0078125,0.476562,-0.0390625,-0.03125,0,291,0
2017/01/13,14:17:52,52,743,-0.409912,0.912048,-0.00836182,0.00445557,-0.0728897,-1.08333,131.597,0.015625,-0.015625,0.429688,-0.015625,-0.0234375,-0.0078125,292,0
2017/01/13,14:17:52,52,776,-0.409912,0.912048,-0.00836182,0.00445557,-0.0728897,-1.08333,131.597,0.0078125,0.0078125,0.5,-0.0078125,-0.0078125,0,294,0
2017/01/13,14:17:52,52,793,-0.410034,0.911926,-0.0106812,0.0117798,-0.729127,-1.67004,131.569,0.0078125,0.0078125,0.492188,-0.0078125,0,0,296,0
2017/01/13,14:17:52,52,809,-0.410034,0.911926,-0.0106812,0.0117798,-0.729127,-1.67004,131.569,0.0078125,0,0.492188,-0.0078125,0,0,297,0
2017/01/13,14:17:52,52,843,-0.409973,0.911926,-0.0098877,0.0126953,-0.862162,-1.63017,131.573,0.0078125,0.0078125,0.492188,-0.0078125,0,0,298,0
2017/01/13,14:17:52,52,876,-0.409973,0.911926,-0.0098877,0.0126953,-0.862162,-1.63017,131.573,0.0078125,0,0.492188,-0.0078125,0,0,298,0
2017/01/13,14:17:52,52,926,-0.409912,0.911987,-0.00933838,0.0133667,-0.958299,-1.60419,131.581,0.0078125,0,0.484375,-0.0078125,0,0,299,0
2017/01/13,14:17:52,52,927,-0.409912,0.911987,-0.00933838,0.0133667,-0.958299,-1.60419,131.581,0.0078125,0,0.492188,-0.0078125,0,0,299,0
2017/01/13,14:17:52,52,942,-0.410095,0.911865,-0.00878906,0.013916,-1.04114,-1.57289,131.556,0.0078125,0,0.492188,-0.0078125,0,0,299,0
2017/01/13,14:17:52,52,976,-0.410095,0.911865,-0.00878906,0.013916,-1.04114,-1.57289,131.556,0,0,0.484375,-0.0078125,0,0,299,0
2017/01/13,14:17:53,53,26,-0.410461,0.911682,-0.00848389,0.0144043,-1.10586,-1.56444,131.508,0.0078125,0,0.492188,-0.0078125,-0.0078125,0,299,0
2017/01/13,14:17:53,53,27,-0.410461,0.911682,-0.00848389,0.0144043,-1.10586,-1.56444,131.508,0.0078125,0,0.492188,-0.0078125,-0.0078125,0,299,0
2017/01/13,14:17:53,53,60,-0.410889,0.911499,-0.00842285,0.0148926,-1.15903,-1.58157,131.454,0.0078125,0,0.492188,-0.0078125,0,0,299,0
2017/01/13,14:17:53,53,61,-0.410889,0.911499,-0.00842285,0.0148926,-1.15903,-1.58157,131.454,0.0078125,0,0.492188,-0.0078125,0,0,299,0
2017/01/13,14:17:53,53,111,-0.411438,0.911255,-0.00756836,0.015686,-1.28125,-1.53046,131.384,0.0078125,0,0.507812,-0.0078125,0,0,299,0
2017/01/13,14:17:53,53,112,-0.411438,0.911255,-0.00756836,0.015686,-1.28125,-1.53046,131.384,0,-0.0078125,0.523438,-0.015625,0,0,299,0
2017/01/13,14:17:53,53,231,-0.412048,0.910889,-0.00201416,0.020813,-2.07782,-1.19391,131.298,-0.0078125,-0.0078125,0.570312,-0.0234375,0.0078125,0,299,0
2017/01/13,14:17:53,53,232,-0.412048,0.910889,-0.00201416,0.020813,-2.07782,-1.19391,131.298,0.0078125,-0.015625,0.585938,-0.046875,0.015625,0,299,0
2017/01/13,14:17:53,53,240,-0.412292,0.909424,0.024231,0.048645,-6.22645,0.228271,131.238,-0.0078125,-0.0703125,0.59375,-0.0625,0.0078125,0,299,0
2017/01/13,14:17:53,53,241,-0.412292,0.909424,0.024231,0.048645,-6.22645,0.228271,131.238,-0.015625,-0.0625,0.609375,-0.078125,0,0,299,0
2017/01/13,14:17:53,53,242,-0.410645,0.904541,0.0548706,0.100525,-13.1159,0.982895,131.279,-0.03125,-0.101562,0.6875,-0.09375,0,-0.0078125,300,0
2017/01/13,14:17:53,53,256,-0.410645,0.904541,0.0548706,0.100525,-13.1159,0.982895,131.279,0.0234375,-0.15625,0.84375,-0.117188,0,-0.0078125,300,0
2017/01/13,14:17:53,53,292,-0.405212,0.890442,0.0964966,0.18335,-23.8741,1.45743,131.371,-0.0546875,-0.15625,0.992188,-0.179688,0,-0.0078125,300,0
2017/01/13,14:17:53,53,326,-0.405212,0.890442,0.0964966,0.18335,-23.8741,1.45743,131.371,-0.1875,-0.203125,0.992188,-0.226562,-0.0078125,-0.0078125,301,0
2017/01/13,14:17:53,53,344,-0.387939,0.846069,0.161011,0.328064,-42.8479,1.40045,131.285,-0.164062,0.101562,0.992188,-0.234375,-0.0078125,-0.015625,302,0
2017/01/13,14:17:53,53,360,-0.387939,0.846069,0.161011,0.328064,-42.8479,1.40045,131.285,-0.179688,0.820312,0.804688,-0.257812,-0.0078125,-0.0234375,303,0
2017/01/13,14:17:53,53,393,-0.361328,0.770386,0.223267,0.475403,-63.3588,0.0575256,129.78,-0.117188,0.960938,0.40625,-0.257812,-0.015625,-0.03125,304,0
2017/01/13,14:17:53,53,410,-0.361328,0.770386,0.223267,0.475403,-63.3588,0.0575256,129.78,-0.109375,0.578125,0.6875,0.0859375,-0.0234375,-0.0234375,305,0.109133
2017/01/13,14:17:53,53,443,-0.373291,0.781799,0.18927,0.462097,-59.7505,-5.58958,125.74,-0.09375,0.210938,0.273438,0.117188,-0.0390625,-0.0234375,307,0
2017/01/13,14:17:53,53,477,-0.373291,0.781799,0.18927,0.462097,-59.7505,-5.58958,125.74,-0.171875,0.15625,0.257812,0.101562,-0.046875,-0.03125,309,0
2017/01/13,14:17:53,53,493,-0.392151,0.826111,0.113892,0.388245,-46.9528,-9.8132,124.942,-0.25,0.164062,0.375,0.109375,-0.0390625,-0.0234375,311,0
2017/01/13,14:17:53,53,526,-0.392151,0.826111,0.113892,0.388245,-46.9528,-9.8132,124.942,-0.328125,0.132812,0.453125,0.132812,-0.03125,0,313,0
2017/01/13,14:17:53,53,560,-0.392883,0.872681,0.050354,0.285461,-32.534,-9.31276,128.802,-0.4375,0.0625,0.539062,0.15625,-0.015625,0.0234375,315,0
2017/01/13,14:17:53,53,561,-0.392883,0.872681,0.050354,0.285461,-32.534,-9.31276,128.802,-0.4375,-0.03125,0.640625,0.171875,0.015625,0.03125,315,0
2017/01/13,14:17:53,53,626,-0.371094,0.919006,0.0197754,0.13147,-14.8518,-3.63193,135.549,-0.375,-0.117188,0.796875,0.171875,0.0390625,0.03125,313,0
2017/01/13,14:17:53,53,627,-0.371094,0.919006,0.0197754,0.13147,-14.8518,-3.63193,135.549,-0.328125,-0.25,0.976562,0.164062,0.046875,0.015625,311,0
2017/01/13,14:17:53,53,643,-0.356445,0.933716,0.0198975,-0.0257568,1.94353,3.18466,138.157,-0.320312,-0.453125,0.992188,0.15625,0.0546875,0,307,0
2017/01/13,14:17:53,53,656,-0.356445,0.933716,0.0198975,-0.0257568,1.94353,3.18466,138.157,-0.132812,-0.875,0.992188,0.179688,0.0703125,-0.015625,303,0
2017/01/13,14:17:53,53,693,-0.365479,0.916199,0.0357056,-0.160522,15.5478,10.935,135.008,0.0234375,-1,0.992188,0.164062,0.0703125,-0.0234375,298,0
2017/01/13,14:17:53,53,727,-0.365479,0.916199,0.0357056,-0.160522,15.5478,10.935,135.008,0.109375,-1,0.726562,0.101562,0.0703125,-0.0546875,293,0
2017/01/13,14:17:53,53,743,-0.39679,0.884583,0.0706177,-0.23468,21.0478,19.4765,128.029,0.578125,-1,0.5,0.0546875,0.0703125,-0.0859375,289,0
2017/01/13,14:17:53,53,776,-0.39679,0.884583,0.0706177,-0.23468,21.0478,19.4765,128.029,0.585938,-1,0.429688,-0.0078125,0.0234375,-0.0703125,286,0
2017/01/13,14:17:53,53,793,-0.451965,0.860596,0.106506,-0.209167,15.2923,22.7098,121.497,0.515625,-1,0.492188,-0.0546875,0,-0.03125,284,0
2017/01/13,14:17:53,53,827,-0.451965,0.860596,0.106506,-0.209167,15.2923,22.7098,121.497,-0.21875,0.75,0.1875,-0.09375,-0.171875,0.0859375,284,0.279085
2017/01/13,14:17:53,53,859,-0.42981,0.895569,0.0396729,-0.107666,9.13383,9.53915,127.961,0.484375,0.304688,0.882812,-0.125,-0.148438,0.0625,284,0
2017/01/13,14:17:53,53,860,-0.42981,0.895569,0.0396729,-0.107666,9.13383,9.53915,127.961,0.046875,-0.0546875,0.914062,-0.109375,-0.046875,0,284,0
2017/01/13,14:17:53,53,893,-0.41095,0.91156,0.00750732,0.00897217,-1.29085,0.361786,131.47,0,0.0078125,0.5,-0.015625,-0.0078125,0,284,0
2017/01/13,14:17:53,53,926,-0.41095,0.91156,0.00750732,0.00897217,-1.29085,0.361786,131.47,-0.015625,0,0.492188,-0.0078125,-0.0078125,0,284,0
2017/01/13,14:17:53,53,943,-0.409607,0.912048,0.00854492,0.0164185,-2.1175,0.122498,131.632,-0.0078125,-0.0078125,0.492188,-0.0078125,0,0,284,0
2017/01/13,14:17:53,53,977,-0.409607,0.912048,0.00854492,0.0164185,-2.1175,0.122498,131.632,-0.0078125,0,0.492188,-0.0078125,0,0,284,0
2017/01/13,14:17:53,53,993,-0.409485,0.912109,0.00915527,0.0169067,-2.19723,0.163712,131.648,-0.0078125,0,0.492188,-0.0078125,0,0,283,0
2017/01/13,14:17:54,54,10,-0.409485,0.912109,0.00915527,0.0169067,-2.19723,0.163712,131.648,-0.0078125,0,0.484375,-0.0078125,0,0,283,0
2017/01/13,14:17:54,54,43,-0.409424,0.912109,0.00976562,0.0170288,-2.23859,0.221954,131.656,-0.0078125,0,0.492188,-0.0078125,0,0,282,0
2017/01/13,14:17:54,54,78,-0.409424,0.912109,0.00976562,0.0170288,-2.23859,0.221954,131.656,-0.0078125,0,0.492188,-0.0078125,0,0,282,0
2017/01/13,14:17:54,54,89,-0.409485,0.912048,0.010437,0.017334,-2.30199,0.277679,131.648,-0.0078125,0,0.492188,-0.0078125,0,0,282,0
2017/01/13,14:17:54,54,126,-0.409485,0.912048,0.010437,0.017334,-2.30199,0.277679,131.648,-0.0078125,0,0.484375,-0.0078125,0,0,282,0
2017/01/13,14:17:54,54,144,-0.409668,0.911987,0.0112305,0.0175171,-2.35852,0.351624,131.628,-0.015625,0,0.492188,-0.0078125,0,0,282,0
2017/01/13,14:17:54,54,194,-0.409668,0.911987,0.0112305,0.0175171,-2.35852,0.351624,131.628,-0.0078125,0,0.492188,-0.0078125,0,0,282,0
2017/01/13,14:17:54,54,263,-0.409851,0.911865,0.012146,0.0177002,-2.42069,0.438293,131.605,-0.015625,0,0.492188,-0.0078125,0,0,282,0
2017/01/13,14:17:54,54,272,-0.409851,0.911865,0.012146,0.0177002,-2.42069,0.438293,131.605,-0.015625,-0.0078125,0.492188,-0.0078125,0,0,282,0
2017/01/13,14:17:54,54,273,-0.410034,0.911804,0.0130005,0.0180664,-2.49931,0.509964,131.585,-0.015625,0,0.492188,-0.0078125,0,0,282,0
2017/01/13,14:17:54,54,274,-0.410034,0.911804,0.0130005,0.0180664,-2.49931,0.509964,131.585,0,-0.0078125,0.53125,-0.0078125,0,-0.0078125,282,0
2017/01/13,14:17:54,54,292,-0.411072,0.911194,0.0158691,0.0215454,-2.99856,0.64299,131.453,-0.0078125,-0.015625,0.539062,-0.0234375,0,0,283,0
2017/01/13,14:17:54,54,310,-0.411072,0.911194,0.0158691,0.0215454,-2.99856,0.64299,131.453,-0.015625,-0.015625,0.546875,-0.03125,0,0,283,0
2017/01/13,14:17:54,54,344,-0.41095,0.910278,0.0297852,0.039856,-5.56877,1.23599,131.466,-0.015625,-0.03125,0.5625,-0.046875,0.0078125,0,283,0
2017/01/13,14:17:54,54,377,-0.41095,0.910278,0.0297852,0.039856,-5.56877,1.23599,131.466,-0.0234375,-0.0546875,0.609375,-0.0625,0,0,283,0
2017/01/13,14:17:54,54,393,-0.410156,0.907227,0.0532837,0.0762939,-10.4945,1.98729,131.527,-0.03125,-0.078125,0.59375,-0.0703125,0,-0.0078125,283,0
2017/01/13,14:17:54,54,426,-0.410156,0.907227,0.0532837,0.0762939,-10.4945,1.98729,131.527,-0.0234375,-0.117188,0.710938,-0.09375,0,-0.0078125,284,0
2017/01/13,14:17:54,54,459,-0.406799,0.899353,0.0836182,0.136536,-18.2775,2.37332,131.705,-0.0625,-0.15625,0.929688,-0.125,0,0,284,0
2017/01/13,14:17:54,54,461,-0.406799,0.899353,0.0836182,0.136536,-18.2775,2.37332,131.705,-0.03125,-0.171875,0.992188,-0.179688,-0.0078125,-0.0078125,285,0
2017/01/13,14:17:54,54,493,-0.394897,0.874451,0.132874,0.24823,-32.6205,2.4727,132.116,-0.0703125,-0.265625,0.992188,-0.21875,-0.015625,-0.0078125,285,0
2017/01/13,14:17:54,54,527,-0.394897,0.874451,0.132874,0.24823,-32.6205,2.4727,132.116,-0.242188,0.046875,0.992188,-0.234375,-0.015625,-0.015625,286,0
2017/01/13,14:17:54,54,576,-0.367615,0.817139,0.193604,0.399414,-52.6644,2.14964,132.62,-0.273438,0.84375,0.882812,-0.257812,-0.0078125,-0.0234375,286,0
2017/01/13,14:17:54,54,577,-0.367615,0.817139,0.193604,0.399414,-52.6644,2.14964,132.62,-0.304688,0.992188,0.609375,-0.265625,-0.015625,-0.03125,287,0
2017/01/13,14:17:54,54,592,-0.351013,0.751343,0.229309,0.509521,-67.9157,-2.00064,128.57,-0.15625,0.625,0.765625,0.078125,0,-0.0390625,288,0.116918
2017/01/13,14:17:54,54,659,-0.351013,0.751343,0.229309,0.509521,-67.9157,-2.00064,128.57,-0.0546875,0.203125,0.28125,0.117188,-0.0078125,-0.03125,290,0
2017/01/13,14:17:54,54,660,-0.394409,0.798828,0.17157,0.420471,-53.8141,-5.59668,124.603,-0.0546875,0.148438,0.242188,0.109375,-0.0234375,-0.03125,292,0
2017/01/13,14:17:54,54,676,-0.394409,0.798828,0.17157,0.420471,-53.8141,-5.59668,124.603,-0.179688,0.1875,0.359375,0.101562,-0.015625,-0.0234375,294,0
2017/01/13,14:17:54,54,692,-0.417603,0.834351,0.113586,0.341248,-41.6293,-7.33974,124.029,-0.203125,0.171875,0.460938,0.125,-0.0078125,0,296,0
2017/01/13,14:17:54,54,726,-0.417603,0.834351,0.113586,0.341248,-41.6293,-7.33974,124.029,-0.257812,0.109375,0.554688,0.15625,0,0.03125,298,0
2017/01/13,14:17:54,54,743,-0.412354,0.884583,0.0671387,0.207214,-24.9588,-3.29529,129.285,-0.28125,-0.0078125,0.65625,0.171875,0.015625,0.046875,299,0
2017/01/13,14:17:54,54,760,-0.412354,0.884583,0.0671387,0.207214,-24.9588,-3.29529,129.285,-0.273438,-0.0859375,0.796875,0.171875,0.0234375,0.046875,300,0
2017/01/13,14:17:54,54,793,-0.384155,0.921326,0.0374146,0.0471191,-6.63651,1.88879,134.841,-0.265625,-0.203125,0.984375,0.164062,0.03125,0.0390625,299,0
2017/01/13,14:17:54,54,826,-0.384155,0.921326,0.0374146,0.0471191,-6.63651,1.88879,134.841,-0.304688,-0.25,0.992188,0.164062,0.0390625,0.015625,298,0
2017/01/13,14:17:54,54,860,-0.366089,0.925049,0.0241699,-0.0984497,9.46499,6.80034,136.254,-0.28125,-0.546875,0.992188,0.195312,0.046875,0,296,0
2017/01/13,14:17:54,54,861,-0.366089,0.925049,0.0241699,-0.0984497,9.46499,6.80034,136.254,-0.171875,-1,0.992188,0.195312,0.0546875,-0.015625,294,0
2017/01/13,14:17:54,54,894,-0.373413,0.89679,0.0267334,-0.23584,23.7679,14.1727,131.79,-0.179688,-1,0.859375,0.140625,0.0625,-0.0546875,290,0
2017/01/13,14:17:54,54,906,-0.373413,0.89679,0.0267334,-0.23584,23.7679,14.1727,131.79,0.632812,-1,0.609375,0.078125,0.117188,-0.101562,287,0
2017/01/13,14:17:54,54,943,-0.423645,0.850952,0.0912476,-0.296753,25.3237,26.7424,120.954,-0.0625,-1,0.289062,0.03125,0.0390625,-0.0625,285,0.168129
2017/01/13,14:17:54,54,976,-0.423645,0.850952,0.0912476,-0.296753,25.3237,26.7424,120.954,0.265625,-1,0.375,-0.03125,-0.0546875,-0.015625,283,0
2017/01/13,14:17:54,54,993,-0.455139,0.853333,0.0848999,-0.239563,19.3642,22.6289,119.942,0.117188,-0.765625,0.5625,-0.078125,-0.03125,0,283,0
2017/01/13,14:17:55,55,26,-0.455139,0.853333,0.0848999,-0.239563,19.3642,22.6289,119.942,-0.265625,0.726562,0.710938,-0.109375,-0.101562,0.046875,283,0
2017/01/13,14:17:55,55,43,-0.439575,0.885681,0.0498657,-0.140808,11.8636,12.5187,125.902,0.3125,0.015625,0.84375,-0.117188,-0.234375,0,283,0
2017/01/13,14:17:55,55,60,-0.439575,0.885681,0.0498657,-0.140808,11.8636,12.5187,125.902,0.125,0,0.992188,-0.15625,-0.03125,0,284,0
2017/01/13,14:17:55,55,93,-0.445557,0.895081,0.00964355,0.0130005,-1.82612,0.325546,127.078,0,-0.0234375,0.585938,-0.0390625,-0.0234375,-0.0078125,285,0
2017/01/13,14:17:55,55,126,-0.445557,0.895081,0.00964355,0.0130005,-1.82612,0.325546,127.078,-0.0078125,0,0.492188,-0.0078125,0,0,286,0
2017/01/13,14:17:55,55,143,-0.444824,0.895203,0.00952148,0.0241699,-2.96608,-0.25563,127.148,-0.0078125,0,0.492188,-0.0078125,0,0,286,0
2017/01/13,14:17:55,55,160,-0.444824,0.895203,0.00952148,0.0241699,-2.96608,-0.25563,127.148,0,0,0.492188,-0.0078125,0,0,286,0
2017/01/13,14:17:55,55,210,-0.444397,0.895447,0.010376,0.0239258,-2.98478,-0.153915,127.207,-0.0078125,0,0.492188,-0.0078125,0,0,285,0
2017/01/13,14:17:55,55,211,-0.444397,0.895447,0.010376,0.0239258,-2.98478,-0.153915,127.207,-0.0078125,0,0.492188,-0.0078125,0,0,284,0
2017/01/13,14:17:55,55,259,-0.444275,0.895508,0.0112305,0.0234375,-2.97819,-0.0408173,127.226,-0.0078125,0,0.492188,-0.0078125,0,0,284,0
2017/01/13,14:17:55,55,276,-0.444275,0.895508,0.0112305,0.0234375,-2.97819,-0.0408173,127.226,-0.0078125,0,0.492188,-0.0078125,0,0,284,0
2017/01/13,14:17:55,55,309,-0.444336,0.895447,0.0124512,0.0229492,-2.99017,0.109268,127.22,-0.0078125,0,0.492188,-0.0078125,0,0,284,0
2017/01/13,14:17:55,55,310,-0.444336,0.895447,0.0124512,0.0229492,-2.99017,0.109268,127.22,-0.0078125,0,0.492188,-0.0078125,0,0,284,0
2017/01/13,14:17:55,55,431,-0.444336,0.895447,0.0134888,0.022644,-3.01172,0.231461,127.223,-0.0078125,0,0.492188,-0.0078125,0,0,284,0
2017/01/13,14:17:55,55,439,-0.444336,0.895447,0.0134888,0.022644,-3.01172,0.231461,127.223,-0.0078125,0,0.484375,-0.0078125,0,0,284,0
2017/01/13,14:17:55,55,440,-0.444397,0.895386,0.0143433,0.0223389,-3.02387,0.334579,127.217,-0.0078125,0,0.492188,-0.0078125,0,0,284,0
2017/01/13,14:17:55,55,441,-0.444397,0.895386,0.0143433,0.0223389,-3.02387,0.334579,127.217,-0.015625,0,0.492188,-0.0078125,0,0,284,0
2017/01/13,14:17:55,55,442,-0.444702,0.895264,0.0149536,0.0221558,-3.0364,0.405624,127.181,-0.0078125,0,0.492188,-0.0078125,0,0,284,0
2017/01/13,14:17:55,55,459,-0.444702,0.895264,0.0149536,0.0221558,-3.0364,0.405624,127.181,-0.0078125,0,0.492188,-0.0078125,0,-0.0078125,284,0
2017/01/13,14:17:55,55,526,-0.445374,0.894897,0.0159912,0.022522,-3.12726,0.49118,127.096,-0.0078125,0,0.492188,-0.0078125,0,-0.0078125,284,0
2017/01/13,14:17:55,55,576,-0.445374,0.894897,0.0159912,0.022522,-3.12726,0.49118,127.096,-0.015625,0,0.5,-0.0078125,0,-0.0078125,284,0
2017/01/13,14:17:55,55,577,-0.44635,0.894287,0.0185547,0.0248413,-3.49689,0.632095,126.971,-0.0078125,-0.0078125,0.5,-0.015625,0,-0.0078125,284,0
2017/01/13,14:17:55,55,578,-0.44635,0.894287,0.0185547,0.0248413,-3.49689,0.632095,126.971,-0.0078125,-0.015625,0.515625,-0.015625,0,0,284,0
2017/01/13,14:17:55,55,611,-0.446655,0.893738,0.0233765,0.0339966,-4.68344,0.656281,126.919,-0.015625,-0.015625,0.554688,-0.03125,0,0,285,0
2017/01/13,14:17:55,55,612,-0.446655,0.893738,0.0233765,0.0339966,-4.68344,0.656281,126.919,-0.015625,-0.03125,0.570312,-0.0390625,0,0,285,0
2017/01/13,14:17:55,55,643,-0.446045,0.892334,0.0372925,0.0582886,-7.89129,0.841995,126.941,-0.015625,-0.0625,0.554688,-0.0546875,0,0,285,0
2017/01/13,14:17:55,55,676,-0.446045,0.892334,0.0372925,0.0582886,-7.89129,0.841995,126.941,-0.0234375,-0.078125,0.554688,-0.0546875,0,0,285,0
2017/01/13,14:17:55,55,710,-0.444397,0.888733,0.0577393,0.0961914,-12.8439,1.00711,126.98,0,-0.125,0.578125,-0.0625,0,0,285,0
2017/01/13,14:17:55,55,727,-0.444397,0.888733,0.0577393,0.0961914,-12.8439,1.00711,126.98,-0.0625,-0.117188,0.742188,-0.0859375,0,0,285,0
2017/01/13,14:17:55,55,777,-0.440186,0.881531,0.0847778,0.148254,-19.6344,1.1528,127.13,-0.0703125,-0.15625,0.875,-0.117188,-0.015625,-0.0078125,285,0
2017/01/13,14:17:55,55,778,-0.440186,0.881531,0.0847778,0.148254,-19.6344,1.1528,127.13,-0.101562,-0.171875,0.992188,-0.164062,-0.015625,-0.015625,285,0
2017/01/13,14:17:55,55,794,-0.433044,0.858154,0.125305,0.245544,-32.0024,0.162109,126.493,-0.148438,-0.1875,0.992188,-0.1875,-0.015625,-0.0234375,286,0
2017/01/13,14:17:55,55,827,-0.433044,0.858154,0.125305,0.245544,-32.0024,0.162109,126.493,-0.21875,-0.0859375,0.992188,-0.195312,-0.0078125,-0.03125,286,0
2017/01/13,14:17:55,55,843,-0.423462,0.807068,0.180298,0.369873,-48.5665,-1.92505,123.76,-0.234375,0.570312,0.734375,-0.210938,0.0078125,-0.0390625,288,0
2017/01/13,14:17:55,55,893,-0.423462,0.807068,0.180298,0.369873,-48.5665,-1.92505,123.76,-0.203125,0.75,0.171875,-0.210938,0,-0.0546875,289,0.088768
2017/01/13,14:17:55,55,925,-0.429443,0.738586,0.22406,0.468811,-62.2463,-8.85802,114.293,-0.09375,0.4375,0.507812,0.046875,0.015625,-0.046875,291,0
2017/01/13,14:17:55,55,926,-0.429443,0.738586,0.22406,0.468811,-62.2463,-8.85802,114.293,0.015625,0.09375,0.15625,0.0859375,-0.0078125,-0.0234375,294,0
2017/01/13,14:17:55,55,976,-0.471558,0.760681,0.181885,0.407227,-52.2863,-10.1093,111.437,-0.078125,0.117188,0.101562,0.078125,-0.0234375,0,297,0
2017/01/13,14:17:55,55,977,-0.471558,0.760681,0.181885,0.407227,-52.2863,-10.1093,111.437,-0.109375,0.109375,0.179688,0.0859375,0,0.0234375,300,0
2017/01/13,14:17:55,55,993,-0.469482,0.800842,0.145142,0.342163,-43.1822,-6.99676,116.467,-0.0546875,0.0703125,0.273438,0.117188,0.015625,0.0390625,303,0
2017/01/13,14:17:56,56,42,-0.469482,0.800842,0.145142,0.342163,-43.1822,-6.99676,116.467,0,-0.21875,0.335938,0.148438,0.0234375,0.03125,305,0
2017/01/13,14:17:56,56,60,-0.466431,0.847778,0.115906,0.224121,-29.218,-0.823914,122.148,0.078125,-0.59375,0.335938,0.15625,0.0234375,0.015625,306,0
2017/01/13,14:17:56,56,93,-0.466431,0.847778,0.115906,0.224121,-29.218,-0.823914,122.148,0.15625,-0.71875,0.421875,0.132812,0.015625,0.015625,307,0
2017/01/13,14:17:56,56,94,-0.46698,0.872314,0.0822144,0.11908,-16.531,1.92603,123.956,0.078125,-0.71875,0.546875,0.117188,0,0.0390625,307,0
2017/01/13,14:17:56,56,127,-0.46698,0.872314,0.0822144,0.11908,-16.531,1.92603,123.956,-0.0078125,-0.835938,0.617188,0.109375,0,0.0625,306,0
2017/01/13,14:17:56,56,143,-0.431213,0.899414,0.0523071,0.0480347,-7.55727,3.04556,128.972,0.015625,-0.914062,0.664062,0.0859375,0.015625,0.0546875,304,0
2017/01/13,14:17:56,56,210,-0.431213,0.899414,0.0523071,0.0480347,-7.55727,3.04556,128.972,0.0625,-0.828125,0.601562,0.0703125,0.0078125,0.0390625,300,0
2017/01/13,14:17:56,56,211,-0.394653,0.917725,0.0438843,0.00585938,-2.60171,4.35904,133.56,-0.0078125,-0.671875,0.539062,0.046875,-0.0078125,0.015625,297,0
2017/01/13,14:17:56,56,226,-0.394653,0.917725,0.0438843,0.00585938,-2.60171,4.35904,133.56,-0.0390625,-0.515625,0.484375,0.03125,-0.0078125,-0.0078125,293,0
2017/01/13,14:17:56,56,242,-0.393677,0.918579,0.0349121,-0.003479,-1.20884,3.83556,133.643,-0.0234375,-0.445312,0.40625,0.015625,-0.0078125,-0.03125,289,0
2017/01/13,14:17:56,56,293,-0.393677,0.918579,0.0349121,-0.003479,-1.20884,3.83556,133.643,0.0625,-0.335938,0.242188,-0.0234375,0,-0.0390625,286,0
2017/01/13,14:17:56,56,294,-0.418396,0.907288,0.0405273,0.012207,-3.21389,3.63637,130.588,0,-0.15625,0.695312,-0.0234375,-0.0859375,-0.0078125,283,0
2017/01/13,14:17:56,56,327,-0.418396,0.907288,0.0405273,0.012207,-3.21389,3.63637,130.588,0.03125,-0.015625,0.546875,-0.0078125,-0.015625,0,282,0
2017/01/13,14:17:56,56,359,-0.419739,0.90686,0.0151367,0.0339355,-4.25851,-0.059433,130.324,0,0,0.492188,-0.0078125,0,0,281,0
2017/01/13,14:17:56,56,360,-0.419739,0.90686,0.0151367,0.0339355,-4.25851,-0.059433,130.324,0,0,0.492188,-0.0078125,0,0,281,0
2017/01/13,14:17:56,56,394,-0.419739,0.906799,0.0159912,0.0349121,-4.40125,-0.0176086,130.322,-0.0078125,0,0.484375,-0.0078125,0,0,281,0
2017/01/13,14:17:56,56,426,-0.419739,0.906799,0.0159912,0.0349121,-4.40125,-0.0176086,130.322,-0.0078125,0,0.492188,-0.0078125,0,0,282,0
2017/01/13,14:17:56,56,443,-0.419739,0.906799,0.0161743,0.0344238,-4.3592,0.0250397,130.324,0,0,0.492188,-0.0078125,0,0,283,0
2017/01/13,14:17:56,56,580,-0.419739,0.906799,0.0161743,0.0344238,-4.3592,0.0250397,130.324,-0.0078125,0,0.484375,-0.0078125,0,0,283,0
2017/01/13,14:17:56,56,589,-0.419739,0.90686,0.0159302,0.0336914,-4.27134,0.0350342,130.327,-0.0078125,0,0.492188,-0.0078125,0,0,283,0
2017/01/13,14:17:56,56,590,-0.419739,0.90686,0.0159302,0.0336914,-4.27134,0.0350342,130.327,0.0078125,-0.046875,0.492188,-0.0078125,0,0,283,0
2017/01/13,14:17:56,56,591,-0.419495,0.907043,0.0155029,0.03302,-4.18103,0.0241394,130.361,-0.0078125,0,0.492188,-0.0078125,-0.0078125,0,283,0
2017/01/13,14:17:56,56,592,-0.419495,0.907043,0.0155029,0.03302,-4.18103,0.0241394,130.361,-0.0078125,0,0.492188,-0.0078125,-0.0078125,0,283,0
2017/01/13,14:17:56,56,590,-0.419434,0.907043,0.0150757,0.0324097,-4.09673,0.00926208,130.367,0,0,0.484375,-0.0078125,0,0,283,0
2017/01/13,14:17:56,56,714,-0.419434,0.907043,0.0150757,0.0324097,-4.09673,0.00926208,130.367,0,0,0.492188,-0.0078125,0,0,283,0
2017/01/13,14:17:56,56,715,-0.419556,0.907043,0.0147705,0.0319824,-4.03771,-0.00239563,130.354,-0.0078125,0,0.492188,-0.0078125,0,0,283,0
2017/01/13,14:17:56,56,724,-0.419556,0.907043,0.0147705,0.0319824,-4.03771,-0.00239563,130.354,-0.0078125,0,0.484375,-0.0078125,0,0,283,0
2017/01/13,14:17:56,56,725,-0.419617,0.907043,0.0144043,0.0314941,-3.96928,-0.0172424,130.347,-0.0078125,0,0.484375,-0.0078125,-0.0078125,0,283,0
2017/01/13,14:17:56,56,743,-0.419617,0.907043,0.0144043,0.0314941,-3.96928,-0.0172424,130.347,0,0,0.492188,-0.0078125,-0.0078125,0,283,0
2017/01/13,14:17:56,56,744,-0.419678,0.906982,0.0140991,0.0310669,-3.90994,-0.0287628,130.337,-0.0078125,0,0.492188,-0.0078125,0,0,283,0
2017/01/13,14:17:56,56,846,-0.419678,0.906982,0.0140991,0.0310669,-3.90994,-0.0287628,130.337,-0.0078125,0,0.492188,-0.0078125,-0.0078125,0,283,0
2017/01/13,14:17:56,56,877,-0.419678,0.907043,0.0137329,0.0306396,-3.848,-0.0462189,130.34,-0.0078125,0,0.492188,-0.0078125,0,0,283,0
2017/01/13,14:17:56,56,878,-0.419678,0.907043,0.0137329,0.0306396,-3.848,-0.0462189,130.34,-0.0078125,0,0.492188,-0.0078125,-0.0078125,0,283,0
2017/01/13,14:17:56,56,879,-0.4198,0.906982,0.0133667,0.0301514,-3.77946,-0.0613403,130.324,-0.0078125,0,0.492188,-0.0078125,-0.0078125,0,283,0
2017/01/13,14:17:56,56,877,-0.4198,0.906982,0.0133667,0.0301514,-3.77946,-0.0613403,130.324,-0.0078125,0,0.492188,-0.0078125,-0.0078125,0,283,0
2017/01/13,14:17:56,56,893,-0.419861,0.906982,0.0129395,0.0297852,-3.72081,-0.0884094,130.316,0,0,0.492188,-0.0078125,-0.0078125,0,283,0
2017/01/13,14:17:56,56,926,-0.419861,0.906982,0.0129395,0.0297852,-3.72081,-0.0884094,130.316,-0.0078125,0,0.492188,-0.0078125,-0.0078125,0,283,0
2017/01/13,14:17:56,56,960,-0.419922,0.906982,0.0125122,0.0293579,-3.6558,-0.112503,130.309,-0.0078125,0,0.492188,-0.0078125,0,0,283,0
2017/01/13,14:17:56,56,961,-0.419922,0.906982,0.0125122,0.0293579,-3.6558,-0.112503,130.309,-0.0078125,0,0.492188,-0.0078125,0,0,283,0
2017/01/13,14:17:56,56,994,-0.419922,0.907043,0.0122681,0.0287476,-3.58067,-0.108383,130.312,-0.0078125,0,0.492188,-0.0078125,0,0,283,0
2017/01/13,14:17:57,57,42,-0.419922,0.907043,0.0122681,0.0287476,-3.58067,-0.108383,130.312,0,0,0.492188,-0.0078125,0,0,283,0
2017/01/13,14:17:57,57,59,-0.419861,0.907043,0.0119019,0.0280151,-3.48666,-0.111008,130.319,-0.0078125,0,0.492188,-0.0078125,0,0,283,0
2017/01/13,14:17:57,57,76,-0.419861,0.907043,0.0119019,0.0280151,-3.48666,-0.111008,130.319,-0.0078125,0,0.484375,-0.0078125,0,0,283,0
2017/01/13,14:17:57,57,111,-0.419861,0.907104,0.0115356,0.0274048,-3.40565,-0.119629,130.322,0,0,0.484375,-0.0078125,-0.0078125,0,283,0
2017/01/13,14:17:57,57,112,-0.419861,0.907104,0.0115356,0.0274048,-3.40565,-0.119629,130.322,0,0,0.492188,-0.0078125,0,0,283,0
2017/01/13,14:17:57,57,143,-0.419861,0.907104,0.0111694,0.0269165,-3.33715,-0.134216,130.321,-0.0078125,0,0.492188,-0.0078125,-0.0078125,0,283,0
2017/01/13,14:17:57,57,176,-0.419861,0.907104,0.0111694,0.0269165,-3.33715,-0.134216,130.321,0,0,0.492188,-0.0078125,-0.0078125,0,283,0
2017/01/13,14:17:57,57,227,-0.4198,0.907166,0.0108643,0.0264282,-3.27171,-0.142197,130.33,-0.0078125,0,0.484375,-0.0078125,-0.0078125,0,283,0
2017/01/13,14:17:57,57,260,-0.4198,0.907166,0.0108643,0.0264282,-3.27171,-0.142197,130.33,-0.0078125,0,0.492188,-0.0078125,0,0,283,0
2017/01/13,14:17:57,57,261,-0.4198,0.907166,0.0105591,0.026062,-3.21888,-0.156326,130.33,-0.0078125,0,0.492188,-0.0078125,-0.0078125,0,283,0
2017/01/13,14:17:57,57,277,-0.4198,0.907166,0.0105591,0.026062,-3.21888,-0.156326,130.33,-0.0078125,0,0.492188,-0.0078125,0,0,283,0
2017/01/13,14:17:57,57,323,-0.4198,0.907166,0.0102539,0.0256348,-3.15969,-0.167511,130.33,-0.0078125,0,0.492188,-0.0078125,0,0,283,0
2017/01/13,14:17:57,57,324,-0.4198,0.907166,0.0102539,0.0256348,-3.15969,-0.167511,130.33,-0.0078125,0,0.492188,-0.0078125,0,0,283,0
2017/01/13,14:17:57,57,360,-0.419739,0.907227,0.0100098,0.0252686,-3.10991,-0.175018,130.339,-0.0078125,0,0.492188,-0.0078125,0,0,283,0
2017/01/13,14:17:57,57,378,-0.419739,0.907227,0.0100098,0.0252686,-3.10991,-0.175018,130.339,-0.0078125,0,0.492188,-0.0078125,0,0,283,0
2017/01/13,14:17:57,57,409,-0.419739,0.907227,0.00982666,0.0249023,-3.06297,-0.176453,130.339,-0.0078125,0,0.492188,-0.0078125,-0.0078125,0,283,0
2017/01/13,14:17:57,57,410,-0.419739,0.907227,0.00982666,0.0249023,-3.06297,-0.176453,130.339,0,0,0.492188,-0.0078125,0,0,283,0
2017/01/13,14:17:57,57,460,-0.419739,0.907227,0.00958252,0.0245361,-3.01308,-0.184219,130.339,-0.0078125,0,0.492188,-0.0078125,0,0,283,0
2017/01/13,14:17:57,57,477,-0.419739,0.907227,0.00958252,0.0245361,-3.01308,-0.184219,130.339,-0.0078125,0,0.492188,-0.0078125,0,0,283,0
2017/01/13,14:17:57,57,493,-0.419739,0.907288,0.00939941,0.024231,-2.97266,-0.188492,130.342,-0.0078125,0,0.484375,-0.0078125,0,0,283,0
2017/01/13,14:17:57,57,528,-0.419739,0.907288,0.00939941,0.024231,-2.97266,-0.188492,130.342,0,0,0.492188,-0.0078125,0,0,283,0
2017/01/13,14:17:57,57,559,-0.419678,0.907288,0.00921631,0.0239258,-2.93201,-0.192688,130.348,-0.0078125,0,0.492188,-0.0078125,0,0,283,0
2017/01/13,14:17:57,57,560,-0.419678,0.907288,0.00921631,0.0239258,-2.93201,-0.192688,130.348,-0.0078125,0,0.492188,-0.0078125,0,0,283,0
2017/01/13,14:17:57,57,610,-0.419678,0.907288,0.0090332,0.0236206,-2.89142,-0.197052,130.348,-0.0078125,0,0.492188,-0.0078125,0,0,283,0
2017/01/13,14:17:57,57,660,-0.419678,0.907288,0.0090332,0.0236206,-2.89142,-0.197052,130.348,-0.0078125,0,0.492188,-0.0078125,0,0,283,0
2017/01/13,14:17:57,57,661,-0.419678,0.907288,0.0088501,0.0233154,-2.85084,-0.201416,130.348,0,0,0.492188,-0.0078125,0,0,283,0
2017/01/13,14:17:57,57,676,-0.419678,0.907288,0.0088501,0.0233154,-2.85084,-0.201416,130.348,-0.0078125,0,0.492188,-0.0078125,0,0,283,0
2017/01/13,14:17:57,57,726,-0.419678,0.907349,0.00866699,0.0230103,-2.81042,-0.205688,130.351,-0.0078125,0,0.492188,-0.0078125,0,0,283,0
2017/01/13,14:17:57,57,727,-0.419678,0.907349,0.00866699,0.0230103,-2.81042,-0.205688,130.351,-0.0078125,0,0.492188,-0.0078125,0,0,283,0
2017/01/13,14:17:57,57,757,-0.419617,0.907349,0.00848389,0.0227661,-2.77612,-0.212845,130.357,-0.0078125,0,0.492188,-0.0078125,0,0,283,0
2017/01/13,14:17:57,57,776,-0.419617,0.907349,0.00848389,0.0227661,-2.77612,-0.212845,130.357,-0.0078125,0,0.484375,-0.0078125,0,0,283,0
2017/01/13,14:17:57,57,793,-0.419617,0.907349,0.00836182,0.022522,-2.74483,-0.213806,130.357,-0.0078125,0,0.492188,-0.0078125,0,0,283,0
2017/01/13,14:17:57,57,827,-0.419617,0.907349,0.00836182,0.022522,-2.74483,-0.213806,130.357,0,0,0.492188,-0.0078125,-0.0078125,0,283,0
2017/01/13,14:17:57,57,927,-0.419556,0.90741,0.00817871,0.0223389,-2.71706,-0.223816,130.366,-0.0078125,0,0.492188,-0.0078125,0,0,283,0
2017/01/13,14:17:57,57,928,-0.419556,0.90741,0.00817871,0.0223389,-2.71706,-0.223816,130.366,-0.0078125,0,0.492188,-0.0078125,0,0,283,0
2017/01/13,14:17:57,57,943,-0.419556,0.90741,0.00805664,0.0220947,-2.68577,-0.224777,130.366,-0.0078125,0,0.484375,-0.0078125,0,0,283,0
2017/01/13,14:17:57,57,944,-0.419556,0.90741,0.00805664,0.0220947,-2.68577,-0.224777,130.366,0,0,0.492188,-0.0078125,0,0,283,0
2017/01/13,14:17:57,57,945,-0.419556,0.90741,0.00787354,0.0218506,-2.65154,-0.232086,130.366,-0.0078125,0,0.492188,-0.0078125,0,0,283,0
2017/01/13,14:17:57,57,974,-0.419556,0.90741,0.00787354,0.0218506,-2.65154,-0.232086,130.366,0,0,0.484375,-0.0078125,-0.0078125,0,283,0
2017/01/13,14:17:58,58,44,-0.419495,0.907471,0.00775146,0.0217285,-2.63306,-0.238678,130.375,-0.0078125,0,0.492188,-0.0078125,0,0,283,0
2017/01/13,14:17:58,58,45,-0.419495,0.907471,0.00775146,0.0217285,-2.63306,-0.238678,130.375,-0.0078125,0,0.492188,-0.0078125,0,0,283,0
