date,time,,millisec,quaternion.w,quaternion.x,quaternion.y,quaternion.z,angle.x,angle.y,angle.z,acc.x,acc.y,acc.z,gyro.x,gyro.y,gyro.z,compass,power
2017/01/16,15:55:03,3,285,0.980347,-0.196533,-0.0145264,-0.000183105,-1.63623,0.306732,22.6764,-0.0078125,0,0.492188,-0.0078125,0,0,83,0
2017/01/16,15:55:03,3,316,0.980164,-0.197388,-0.0145264,-0.000244141,-1.63732,0.3013,22.7764,-0.0078125,0,0.5,-0.0078125,0,0,83,0
2017/01/16,15:55:03,3,335,0.980164,-0.197388,-0.0145264,-0.000244141,-1.63732,0.3013,22.7764,-0.0078125,0,0.5,-0.0078125,0,0,83,0
2017/01/16,15:55:03,3,349,0.980042,-0.198242,-0.0145264,-0.000244141,-1.63715,0.302704,22.8752,-0.0078125,0,0.492188,-0.0078125,0,0,82,0
2017/01/16,15:55:03,3,417,0.980042,-0.198242,-0.0145264,-0.000244141,-1.63715,0.302704,22.8752,-0.0078125,0,0.5,-0.0078125,-0.0078125,0,82,0
2017/01/16,15:55:03,3,536,0.979858,-0.199097,-0.0145874,-0.000305176,-1.64511,0.298676,22.9753,-0.0078125,0,0.492188,-0.0078125,0,0,82,0
2017/01/16,15:55:03,3,537,0.979858,-0.199097,-0.0145874,-0.000305176,-1.64511,0.298676,22.9753,-0.0078125,0,0.492188,-0.0078125,0,0,82,0
2017/01/16,15:55:03,3,582,0.979675,-0.199951,-0.0146484,-0.000427246,-1.65449,0.287811,23.0754,-0.0078125,0,0.492188,-0.0078125,0,0,82,0
2017/01/16,15:55:03,3,583,0.979675,-0.199951,-0.0146484,-0.000427246,-1.65449,0.287811,23.0754,-0.0078125,0,0.492188,-0.0078125,0,0,83,0
2017/01/16,15:55:03,3,584,0.979492,-0.200867,-0.0145874,-0.000427246,-1.64737,0.287949,23.1823,-0.0078125,0,0.492188,-0.0078125,0,0,83,0
2017/01/16,15:55:03,3,617,0.979492,-0.200867,-0.0145874,-0.000427246,-1.64737,0.287949,23.1823,-0.0078125,0,0.492188,-0.0078125,0,0,83,0
2017/01/16,15:55:03,3,618,0.979309,-0.201721,-0.0145874,-0.000549316,-1.64993,0.275681,23.2823,-0.0078125,0,0.492188,-0.0078125,-0.0078125,0,83,0
2017/01/16,15:55:03,3,619,0.979309,-0.201721,-0.0145874,-0.000549316,-1.64993,0.275681,23.2823,-0.0078125,0,0.492188,-0.0078125,0,0,82,0
2017/01/16,15:55:03,3,699,0.979126,-0.202576,-0.0146484,-0.000610352,-1.65795,0.271683,23.3824,-0.0078125,0,0.492188,-0.0078125,0,0,82,0
2017/01/16,15:55:03,3,700,0.979126,-0.202576,-0.0146484,-0.000610352,-1.65795,0.271683,23.3824,-0.0078125,0,0.5,-0.0078125,0,0,82,0
2017/01/16,15:55:03,3,701,0.978943,-0.20343,-0.0145874,-0.000671387,-1.65227,0.264877,23.4825,-0.0078125,0,0.5,-0.0078125,0,0,82,0
2017/01/16,15:55:03,3,732,0.978943,-0.20343,-0.0145874,-0.000671387,-1.65227,0.264877,23.4825,-0.0078125,0,0.492188,-0.0078125,0,0,82,0
2017/01/16,15:55:03,3,733,0.97876,-0.204346,-0.0145874,-0.000732422,-1.65347,0.259552,23.5894,-0.0078125,0,0.492188,-0.0078125,0,0,82,0
2017/01/16,15:55:03,3,734,0.97876,-0.204346,-0.0145874,-0.000732422,-1.65347,0.259552,23.5894,-0.0078125,0,0.492188,-0.0078125,0,0,82,0
2017/01/16,15:55:03,3,767,0.978577,-0.2052,-0.0145874,-0.000732422,-1.65323,0.261002,23.6896,-0.0078125,0,0.492188,-0.0078125,0,0,82,0
2017/01/16,15:55:03,3,799,0.978577,-0.2052,-0.0145874,-0.000732422,-1.65323,0.261002,23.6896,-0.0078125,0,0.492188,-0.0078125,0,0,82,0
2017/01/16,15:55:03,3,818,0.978394,-0.206116,-0.0145874,-0.000793457,-1.65445,0.255707,23.7965,-0.0078125,0,0.492188,-0.0078125,0,0,83,0
2017/01/16,15:55:03,3,850,0.978394,-0.206116,-0.0145874,-0.000793457,-1.65445,0.255707,23.7965,-0.0078125,0,0.5,-0.0078125,0,0,82,0
2017/01/16,15:55:03,3,851,0.97821,-0.20697,-0.0145264,-0.000793457,-1.64737,0.255707,23.8966,-0.0078125,0,0.492188,-0.0078125,0,0,82,0
2017/01/16,15:55:03,3,966,0.97821,-0.20697,-0.0145264,-0.000793457,-1.64737,0.255707,23.8966,-0.0078125,0,0.492188,-0.0078125,0,0,82,0
2017/01/16,15:55:03,3,967,0.978027,-0.207825,-0.0145264,-0.000793457,-1.64715,0.257141,23.9968,-0.0078125,0,0.492188,-0.0078125,0,0,82,0
2017/01/16,15:55:03,3,968,0.978027,-0.207825,-0.0145264,-0.000793457,-1.64715,0.257141,23.9968,-0.0078125,0,0.5,-0.0078125,0,0,82,0
2017/01/16,15:55:03,3,985,0.977844,-0.208679,-0.0145264,-0.000854492,-1.64838,0.25174,24.0969,-0.0078125,0,0.492188,-0.0078125,0,0,82,0
2017/01/16,15:55:04,4,35,0.977844,-0.208679,-0.0145264,-0.000854492,-1.64838,0.25174,24.0969,-0.0078125,0,0.492188,-0.0078125,0,0,82,0
2017/01/16,15:55:04,4,36,0.977661,-0.209534,-0.0144653,-0.000915527,-1.64278,0.244873,24.1969,-0.0078125,0,0.492188,-0.0078125,0,0,82,0
2017/01/16,15:55:04,4,37,0.977661,-0.209534,-0.0144653,-0.000915527,-1.64278,0.244873,24.1969,-0.0078125,0,0.492188,-0.0078125,0,0,82,0
2017/01/16,15:55:04,4,85,0.977478,-0.210449,-0.0144653,-0.000915527,-1.64258,0.246399,24.3039,-0.0078125,0,0.492188,-0.0078125,0,0,82,0
2017/01/16,15:55:04,4,99,0.977478,-0.210449,-0.0144653,-0.000915527,-1.64258,0.246399,24.3039,-0.0078125,0,0.5,-0.0078125,0,0,82,0
2017/01/16,15:55:04,4,100,0.977295,-0.211304,-0.0144043,-0.000915527,-1.63552,0.246353,24.4041,-0.0078125,0,0.492188,-0.0078125,0,0,82,0
2017/01/16,15:55:04,4,135,0.977295,-0.211304,-0.0144043,-0.000915527,-1.63552,0.246353,24.4041,-0.0078125,0,0.492188,-0.0078125,0,0,82,0
2017/01/16,15:55:04,4,236,0.977112,-0.212219,-0.0144043,-0.000976562,-1.6368,0.241043,24.511,-0.0078125,0,0.5,-0.0078125,0,0,82,0
2017/01/16,15:55:04,4,237,0.977112,-0.212219,-0.0144043,-0.000976562,-1.6368,0.241043,24.511,-0.0078125,0,0.492188,-0.0078125,0,0,82,0
2017/01/16,15:55:04,4,238,0.976929,-0.213074,-0.0144043,-0.0010376,-1.63809,0.235641,24.6111,-0.0078125,0,0.492188,-0.0078125,0,0,82,0
2017/01/16,15:55:04,4,249,0.976929,-0.213074,-0.0144043,-0.0010376,-1.63809,0.235641,24.6111,-0.0078125,0,0.492188,-0.0078125,-0.0078125,0,82,0
2017/01/16,15:55:04,4,250,0.976685,-0.213989,-0.0144043,-0.00109863,-1.63929,0.230362,24.7195,-0.0078125,0,0.492188,-0.0078125,-0.0078125,0,82,0
2017/01/16,15:55:04,4,286,0.976685,-0.213989,-0.0144043,-0.00109863,-1.63929,0.230362,24.7195,-0.0078125,0,0.492188,-0.0078125,0,0,82,0
2017/01/16,15:55:04,4,350,0.976501,-0.214844,-0.0145264,-0.0012207,-1.65577,0.221146,24.8195,-0.0078125,0,0.5,-0.0078125,-0.0078125,0,83,0
2017/01/16,15:55:04,4,351,0.976501,-0.214844,-0.0145264,-0.0012207,-1.65577,0.221146,24.8195,-0.0078125,0,0.5,-0.0078125,-0.0078125,0,83,0
2017/01/16,15:55:04,4,386,0.976318,-0.215698,-0.0145874,-0.00140381,-1.66694,0.203598,24.9195,-0.0078125,0,0.492188,-0.0078125,-0.0078125,0,83,0
2017/01/16,15:55:04,4,387,0.976318,-0.215698,-0.0145874,-0.00140381,-1.66694,0.203598,24.9195,-0.0078125,0,0.5,-0.0078125,-0.0078125,0,82,0
2017/01/16,15:55:04,4,399,0.976135,-0.216553,-0.0146484,-0.00152588,-1.67663,0.192917,25.0195,-0.0078125,0,0.492188,-0.0078125,-0.0078125,0,82,0
2017/01/16,15:55:04,4,466,0.976135,-0.216553,-0.0146484,-0.00152588,-1.67663,0.192917,25.0195,-0.0078125,0,0.492188,-0.0078125,-0.0078125,0,83,0
2017/01/16,15:55:04,4,467,0.975952,-0.217407,-0.0147095,-0.00164795,-1.68635,0.182236,25.1195,-0.0078125,0,0.492188,-0.0078125,-0.0078125,0,83,0
2017/01/16,15:55:04,4,500,0.975952,-0.217407,-0.0147095,-0.00164795,-1.68635,0.182236,25.1195,-0.0078125,0,0.492188,-0.0078125,-0.0078125,0,83,0
2017/01/16,15:55:04,4,518,0.975769,-0.218323,-0.0147705,-0.00170898,-1.69457,0.178513,25.2264,-0.0078125,0,0.492188,-0.0078125,-0.0078125,0,82,0
2017/01/16,15:55:04,4,533,0.975769,-0.218323,-0.0147705,-0.00170898,-1.69457,0.178513,25.2264,-0.0078125,0,0.492188,-0.0078125,-0.0078125,0,83,0
2017/01/16,15:55:04,4,569,0.975525,-0.219177,-0.0147705,-0.00183105,-1.69739,0.166382,25.3279,-0.0078125,0,0.492188,-0.0078125,-0.0078125,0,83,0
2017/01/16,15:55:04,4,616,0.975525,-0.219177,-0.0147705,-0.00183105,-1.69739,0.166382,25.3279,-0.0078125,0,0.492188,-0.0078125,0,0,83,0
2017/01/16,15:55:04,4,617,0.975342,-0.220093,-0.0147095,-0.00195312,-1.69352,0.152756,25.4347,-0.0078125,0,0.5,-0.0078125,0,0,83,0
2017/01/16,15:55:04,4,653,0.975342,-0.220093,-0.0147095,-0.00195312,-1.69352,0.152756,25.4347,-0.0078125,0,0.492188,-0.0078125,0,0,83,0
2017/01/16,15:55:04,4,666,0.975159,-0.220947,-0.0147095,-0.00195312,-1.69341,0.154251,25.5348,-0.0078125,0,0.492188,-0.0078125,0,0,83,0
2017/01/16,15:55:04,4,702,0.975159,-0.220947,-0.0147095,-0.00195312,-1.69341,0.154251,25.5348,-0.0078125,0,0.492188,-0.0078125,0,0,83,0
2017/01/16,15:55:04,4,716,0.974976,-0.221802,-0.0147095,-0.00201416,-1.69484,0.148911,25.6349,-0.0078125,0,0.492188,-0.0078125,0,0,83,0
2017/01/16,15:55:04,4,750,0.974976,-0.221802,-0.0147095,-0.00201416,-1.69484,0.148911,25.6349,-0.0078125,0,0.492188,-0.0078125,0,0,83,0
2017/01/16,15:55:04,4,766,0.974731,-0.222717,-0.0147095,-0.0020752,-1.6962,0.143692,25.7434,-0.0078125,0,0.492188,-0.0078125,0,0,83,0
2017/01/16,15:55:04,4,816,0.974731,-0.222717,-0.0147095,-0.0020752,-1.6962,0.143692,25.7434,-0.0078125,0,0.5,-0.0078125,0,0,83,0
2017/01/16,15:55:04,4,817,0.974548,-0.223572,-0.0147095,-0.0020752,-1.69609,0.145172,25.8435,-0.0078125,0,0.492188,-0.0078125,0,0,83,0
2017/01/16,15:55:04,4,850,0.974548,-0.223572,-0.0147095,-0.0020752,-1.69609,0.145172,25.8435,-0.0078125,0,0.492188,-0.0078125,0,0,83,0
2017/01/16,15:55:04,4,851,0.974365,-0.224426,-0.0147095,-0.00213623,-1.69756,0.139832,25.9436,-0.0078125,0,0.492188,-0.0078125,0,0,83,0
2017/01/16,15:55:04,4,900,0.974365,-0.224426,-0.0147095,-0.00213623,-1.69756,0.139832,25.9436,-0.0078125,0,0.492188,-0.0078125,0,0,83,0
2017/01/16,15:55:04,4,917,0.974121,-0.225342,-0.0147095,-0.00213623,-1.69737,0.141449,26.0521,-0.0078125,0,0.492188,-0.0078125,0,0,83,0
2017/01/16,15:55:04,4,936,0.974121,-0.225342,-0.0147095,-0.00213623,-1.69737,0.141449,26.0521,-0.0078125,0,0.492188,-0.0078125,0,0,83,0
2017/01/16,15:55:04,4,968,0.973938,-0.226196,-0.0146484,-0.0020752,-1.68887,0.148163,26.1524,-0.0078125,0,0.492188,-0.0078125,0,0,83,0
2017/01/16,15:55:05,5,16,0.973938,-0.226196,-0.0146484,-0.0020752,-1.68887,0.148163,26.1524,-0.0078125,0,0.492188,-0.0078125,0,0,83,0
2017/01/16,15:55:05,5,17,0.973755,-0.227112,-0.0145874,-0.0020752,-1.68197,0.148148,26.2593,-0.0078125,0,0.492188,-0.0078125,0,0,83,0
2017/01/16,15:55:05,5,149,0.973755,-0.227112,-0.0145874,-0.0020752,-1.68197,0.148148,26.2593,-0.0078125,0,0.492188,-0.0078125,0,0,83,0
2017/01/16,15:55:05,5,150,0.973511,-0.228027,-0.0145264,-0.0020752,-1.67497,0.148148,26.3678,-0.0078125,0,0.492188,-0.0078125,0,0,83,0
2017/01/16,15:55:05,5,151,0.973511,-0.228027,-0.0145264,-0.0020752,-1.67497,0.148148,26.3678,-0.0078125,0,0.492188,-0.0078125,0,0,83,0
2017/01/16,15:55:05,5,149,0.973328,-0.228882,-0.0145264,-0.00213623,-1.67647,0.142807,26.4679,-0.0078125,0,0.492188,-0.0078125,0,0,83,0
2017/01/16,15:55:05,5,150,0.973328,-0.228882,-0.0145264,-0.00213623,-1.67647,0.142807,26.4679,-0.0078125,0,0.492188,-0.0078125,0,0,83,0
2017/01/16,15:55:05,5,168,0.973083,-0.229797,-0.0144653,-0.00213623,-1.66948,0.142792,26.5764,-0.0078125,0,0.492188,-0.0078125,0,0,83,0
2017/01/16,15:55:05,5,183,0.973083,-0.229797,-0.0144653,-0.00213623,-1.66948,0.142792,26.5764,-0.0078125,0,0.5,-0.0078125,0,0,83,0
2017/01/16,15:55:05,5,269,0.9729,-0.230652,-0.0144653,-0.00213623,-1.66938,0.144241,26.6766,-0.0078125,0,0.492188,-0.0078125,0,0,82,0
2017/01/16,15:55:05,5,270,0.9729,-0.230652,-0.0144653,-0.00213623,-1.66938,0.144241,26.6766,-0.0078125,0,0.5,-0.0078125,0,0,82,0
2017/01/16,15:55:05,5,271,0.972717,-0.231567,-0.0144043,-0.00213623,-1.6625,0.144165,26.7835,-0.0078125,0,0.492188,-0.0078125,0,0,82,0
2017/01/16,15:55:05,5,333,0.972717,-0.231567,-0.0144043,-0.00213623,-1.6625,0.144165,26.7835,-0.0078125,0,0.492188,-0.0078125,0,0,82,0
2017/01/16,15:55:05,5,334,0.972473,-0.232422,-0.0144043,-0.00219727,-1.66393,0.138855,26.8852,-0.0078125,0,0.5,-0.0078125,0,0,82,0
2017/01/16,15:55:05,5,433,0.972473,-0.232422,-0.0144043,-0.00219727,-1.66393,0.138855,26.8852,-0.0078125,0,0.492188,-0.0078125,0,0,82,0
2017/01/16,15:55:05,5,482,0.97229,-0.233337,-0.0143433,-0.00219727,-1.65705,0.138763,26.9921,-0.0078125,0,0.492188,-0.0078125,0,0,82,0
2017/01/16,15:55:05,5,499,0.97229,-0.233337,-0.0143433,-0.00219727,-1.65705,0.138763,26.9921,-0.0078125,0,0.5,-0.0078125,0,0,82,0
2017/01/16,15:55:05,5,549,0.972046,-0.234192,-0.0143433,-0.00219727,-1.65687,0.140244,27.0939,-0.0078125,0,0.5,-0.0078125,0,0,82,0
2017/01/16,15:55:05,5,632,0.972046,-0.234192,-0.0143433,-0.00219727,-1.65687,0.140244,27.0939,-0.0078125,0,0.5,-0.0078125,0,0,83,0
2017/01/16,15:55:05,5,670,0.971863,-0.235046,-0.0142822,-0.0022583,-1.65163,0.13324,27.1939,-0.0078125,0,0.5,-0.0078125,0,0,82,0
2017/01/16,15:55:05,5,683,0.971863,-0.235046,-0.0142822,-0.0022583,-1.65163,0.13324,27.1939,-0.0078125,0,0.492188,-0.0078125,0,0,82,0
2017/01/16,15:55:05,5,684,0.971619,-0.235901,-0.0142822,-0.0022583,-1.65145,0.13472,27.2957,-0.0078125,0,0.492188,-0.0078125,0,0,82,0
2017/01/16,15:55:05,5,685,0.971619,-0.235901,-0.0142822,-0.0022583,-1.65145,0.13472,27.2957,-0.0078125,0,0.492188,-0.0078125,0,0,82,0
2017/01/16,15:55:05,5,769,0.971436,-0.236816,-0.0142822,-0.0022583,-1.65139,0.136246,27.4026,-0.0078125,0,0.492188,-0.0078125,0,0,82,0
2017/01/16,15:55:05,5,770,0.971436,-0.236816,-0.0142822,-0.0022583,-1.65139,0.136246,27.4026,-0.0078125,0,0.5,-0.0078125,0,0,82,0
2017/01/16,15:55:05,5,771,0.971191,-0.237671,-0.0142212,-0.0022583,-1.64441,0.136047,27.5044,0,0,0.492188,-0.0078125,0,0,83,0
2017/01/16,15:55:05,5,782,0.971191,-0.237671,-0.0142212,-0.0022583,-1.64441,0.136047,27.5044,-0.0078125,0,0.492188,-0.0078125,0,0,82,0
2017/01/16,15:55:05,5,783,0.971008,-0.238586,-0.0142212,-0.0022583,-1.64435,0.137589,27.6113,-0.0078125,0,0.492188,-0.0078125,0,0,83,0
2017/01/16,15:55:05,5,784,0.971008,-0.238586,-0.0142212,-0.0022583,-1.64435,0.137589,27.6113,-0.0078125,0,0.5,-0.0078125,0,0,83,0
2017/01/16,15:55:05,5,819,0.970764,-0.239441,-0.0141602,-0.0022583,-1.63738,0.137375,27.7131,-0.0078125,0,0.492188,-0.0078125,0,0,83,0
2017/01/16,15:55:05,5,820,0.970764,-0.239441,-0.0141602,-0.0022583,-1.63738,0.137375,27.7131,-0.0078125,0,0.492188,-0.0078125,0,0,83,0
2017/01/16,15:55:05,5,883,0.970581,-0.240356,-0.0141602,-0.00231934,-1.639,0.132111,27.8199,-0.0078125,0,0.492188,-0.0078125,0,0,83,0
2017/01/16,15:55:05,5,983,0.970581,-0.240356,-0.0141602,-0.00231934,-1.639,0.132111,27.8199,-0.0078125,0,0.492188,-0.0078125,0,0,82,0
2017/01/16,15:55:06,6,0,0.970337,-0.241211,-0.0141602,-0.00231934,-1.63883,0.13356,27.9217,-0.0078125,0,0.492188,-0.0078125,0,0,82,0
2017/01/16,15:55:06,6,1,0.970337,-0.241211,-0.0141602,-0.00231934,-1.63883,0.13356,27.9217,-0.0078125,0,0.492188,-0.0078125,0,0,83,0
2017/01/16,15:55:06,6,20,0.970093,-0.242126,-0.0141602,-0.00231934,-1.63868,0.135117,28.0303,-0.0078125,0,0.5,-0.0078125,0,0,83,0
2017/01/16,15:55:06,6,166,0.970093,-0.242126,-0.0141602,-0.00231934,-1.63868,0.135117,28.0303,-0.0078125,0,0.492188,-0.0078125,0,0,82,0
2017/01/16,15:55:06,6,319,0.96991,-0.242981,-0.0141602,-0.00231934,-1.63861,0.136551,28.1304,-0.0078125,0,0.5,-0.0078125,0,0,82,0
2017/01/16,15:55:06,6,320,0.96991,-0.242981,-0.0141602,-0.00231934,-1.63861,0.136551,28.1304,-0.0078125,0,0.492188,-0.0078125,0,0,83,0
2017/01/16,15:55:06,6,321,0.969666,-0.243896,-0.0140381,-0.00231934,-1.62489,0.134689,28.239,-0.0078125,0,0.492188,-0.0078125,0,0,83,0
2017/01/16,15:55:06,6,399,0.969666,-0.243896,-0.0140381,-0.00231934,-1.62489,0.134689,28.239,-0.0078125,0,0.492188,-0.0078125,0,0,83,0
2017/01/16,15:55:06,6,400,0.969482,-0.244751,-0.0140381,-0.0022583,-1.62311,0.142899,28.3392,-0.0078125,0,0.492188,-0.0078125,0,0,83,0
2017/01/16,15:55:06,6,401,0.969482,-0.244751,-0.0140381,-0.0022583,-1.62311,0.142899,28.3392,-0.0078125,0,0.492188,-0.0078125,0,0,83,0
2017/01/16,15:55:06,6,567,0.969238,-0.245605,-0.0140381,-0.0022583,-1.62294,0.144333,28.441,-0.0078125,0,0.492188,-0.0078125,0,0,83,0
2017/01/16,15:55:06,6,716,0.969238,-0.245605,-0.0140381,-0.0022583,-1.62294,0.144333,28.441,-0.0078125,0,0.492188,-0.0078125,0,0,83,0
2017/01/16,15:55:06,6,717,0.968994,-0.246521,-0.0139771,-0.0022583,-1.616,0.14415,28.5496,-0.0078125,0,0.492188,-0.0078125,0,0,82,0
2017/01/16,15:55:06,6,718,0.968994,-0.246521,-0.0139771,-0.0022583,-1.616,0.14415,28.5496,-0.0078125,0,0.492188,-0.0078125,0,0,82,0
2017/01/16,15:55:06,6,800,0.968811,-0.247375,-0.0139771,-0.0022583,-1.61593,0.145554,28.6497,-0.0078125,0,0.492188,-0.0078125,0,0,82,0
2017/01/16,15:55:06,6,899,0.968567,-0.24823,-0.013916,-0.0022583,-1.60898,0.145264,28.7514,-0.0078125,0,0.492188,-0.0078125,0,0,82,0
2017/01/16,15:55:06,6,900,0.968567,-0.24823,-0.013916,-0.0022583,-1.60898,0.145264,28.7514,-0.0078125,0,0.492188,-0.0078125,0,0,82,0
2017/01/16,15:55:06,6,916,0.968323,-0.249146,-0.013916,-0.00219727,-1.60709,0.153564,28.8602,-0.0078125,0,0.492188,-0.0078125,0,0,82,0
2017/01/16,15:55:06,6,949,0.968323,-0.249146,-0.013916,-0.00219727,-1.60709,0.153564,28.8602,-0.0078125,0,0.492188,-0.0078125,0,0,82,0
2017/01/16,15:55:06,6,950,0.96814,-0.25,-0.013855,-0.00219727,-1.60024,0.153214,28.9602,-0.0078125,0,0.492188,-0.0078125,0,0,82,0
2017/01/16,15:55:06,6,982,0.967896,-0.250854,-0.013855,-0.00219727,-1.60006,0.154633,29.062,-0.0078125,0,0.492188,-0.0078125,0,0,82,0
2017/01/16,15:55:07,7,17,0.967896,-0.250854,-0.013855,-0.00219727,-1.60006,0.154633,29.062,-0.0078125,0,0.492188,-0.0078125,0,0,82,0
2017/01/16,15:55:07,7,49,0.967896,-0.250854,-0.013855,-0.00219727,-1.60006,0.154633,29.062,-0.0078125,0,0.492188,-0.0078125,0,0,83,0
2017/01/16,15:55:07,7,67,0.967651,-0.251709,-0.013855,-0.0022583,-1.60165,0.149292,29.1638,-0.0078125,0,0.492188,-0.0078125,0,0,83,0
2017/01/16,15:55:07,7,200,0.967651,-0.251709,-0.013855,-0.0022583,-1.60165,0.149292,29.1638,-0.0078125,0,0.492188,-0.0078125,0,0,83,0
2017/01/16,15:55:07,7,299,0.967468,-0.252563,-0.013855,-0.00219727,-1.59981,0.157455,29.264,-0.0078125,0,0.492188,-0.0078125,0,0,83,0
2017/01/16,15:55:07,7,300,0.967224,-0.253479,-0.013855,-0.0022583,-1.60143,0.152206,29.3725,-0.0078125,0,0.492188,-0.0078125,0,0,83,0
2017/01/16,15:55:07,7,352,0.967224,-0.253479,-0.013855,-0.0022583,-1.60143,0.152206,29.3725,-0.0078125,0,0.492188,-0.0078125,0,0,82,0
2017/01/16,15:55:07,7,353,0.96698,-0.254333,-0.013855,-0.0022583,-1.60126,0.153641,29.4743,-0.0078125,0,0.492188,-0.0078125,0,0,82,0
2017/01/16,15:55:07,7,354,0.96698,-0.254333,-0.013855,-0.0022583,-1.60126,0.153641,29.4743,-0.0078125,0,0.492188,-0.0078125,0,0,83,0
2017/01/16,15:55:07,7,402,0.966797,-0.255188,-0.013916,-0.0022583,-1.60796,0.156799,29.5744,-0.0078125,0,0.492188,-0.0078125,0,0,83,0
2017/01/16,15:55:07,7,403,0.966797,-0.255188,-0.013916,-0.0022583,-1.60796,0.156799,29.5744,-0.0078125,0,0.492188,-0.0078125,0,0,82,0
2017/01/16,15:55:07,7,404,0.966553,-0.256042,-0.013916,-0.0022583,-1.60779,0.158234,29.6763,-0.0078125,0,0.492188,-0.0078125,0,0,82,0
2017/01/16,15:55:07,7,417,0.966553,-0.256042,-0.013916,-0.0022583,-1.60779,0.158234,29.6763,-0.0078125,0,0.492188,-0.0078125,0,0,82,0
2017/01/16,15:55:07,7,418,0.966309,-0.256897,-0.013916,-0.00231934,-1.60942,0.152908,29.778,-0.0078125,0,0.5,-0.0078125,0,0,82,0
2017/01/16,15:55:07,7,515,0.966309,-0.256897,-0.013916,-0.00231934,-1.60942,0.152908,29.778,-0.0078125,0,0.5,-0.0078125,0,0,82,0
2017/01/16,15:55:07,7,553,0.966064,-0.257812,-0.013916,-0.00231934,-1.60927,0.154434,29.8866,-0.0078125,0,0.492188,-0.0078125,0,0,82,0
2017/01/16,15:55:07,7,603,0.966064,-0.257812,-0.013916,-0.00231934,-1.60927,0.154434,29.8866,-0.0078125,0,0.5,-0.0078125,0,0,82,0
2017/01/16,15:55:07,7,604,0.96582,-0.258667,-0.013916,-0.00231934,-1.60911,0.155869,29.9885,-0.0078125,0,0.492188,-0.0078125,0,0,82,0
2017/01/16,15:55:07,7,605,0.96582,-0.258667,-0.013916,-0.00231934,-1.60911,0.155869,29.9885,-0.0078125,0,0.492188,-0.0078125,0,0,82,0
2017/01/16,15:55:07,7,616,0.965637,-0.259521,-0.013855,-0.00231934,-1.60229,0.155457,30.0885,-0.0078125,0,0.492188,-0.0078125,0,0,82,0
2017/01/16,15:55:07,7,617,0.965637,-0.259521,-0.013855,-0.00231934,-1.60229,0.155457,30.0885,-0.0078125,0,0.492188,-0.0078125,0,0,82,0
2017/01/16,15:55:07,7,619,0.965393,-0.260376,-0.013855,-0.00231934,-1.60213,0.156876,30.1903,-0.0078125,0,0.5,-0.0078125,0,0,82,0
2017/01/16,15:55:07,7,649,0.965393,-0.260376,-0.013855,-0.00231934,-1.60213,0.156876,30.1903,-0.0078125,0,0.492188,-0.0078125,0,0,83,0
2017/01/16,15:55:07,7,650,0.965149,-0.26123,-0.013916,-0.00238037,-1.61055,0.153381,30.2922,-0.0078125,0,0.5,-0.0078125,0,0,83,0
2017/01/16,15:55:07,7,685,0.965149,-0.26123,-0.013916,-0.00238037,-1.61055,0.153381,30.2922,-0.0078125,0,0.492188,-0.0078125,0,0,83,0
2017/01/16,15:55:07,7,686,0.964905,-0.262085,-0.013916,-0.00238037,-1.61039,0.154816,30.394,-0.0078125,0,0.492188,-0.0078125,0,0,83,0
2017/01/16,15:55:07,7,687,0.964905,-0.262085,-0.013916,-0.00238037,-1.61039,0.154816,30.394,-0.0078125,0,0.492188,-0.0078125,0,0,83,0
2017/01/16,15:55:07,7,700,0.964661,-0.262939,-0.013916,-0.00238037,-1.61024,0.15625,30.4959,-0.0078125,0,0.492188,-0.0078125,0,0,82,0
2017/01/16,15:55:07,7,734,0.964661,-0.262939,-0.013916,-0.00238037,-1.61024,0.15625,30.4959,-0.0078125,0,0.492188,-0.0078125,0,0,82,0
2017/01/16,15:55:07,7,751,0.964417,-0.263855,-0.013916,-0.00238037,-1.6101,0.157776,30.6045,-0.0078125,0,0.492188,-0.0078125,0,0,82,0
2017/01/16,15:55:07,7,801,0.964417,-0.263855,-0.013916,-0.00238037,-1.6101,0.157776,30.6045,-0.0078125,0,0.492188,-0.0078125,0,0,82,0
2017/01/16,15:55:07,7,832,0.964172,-0.264709,-0.013916,-0.00238037,-1.60994,0.15921,30.7063,-0.0078125,0,0.492188,-0.0078125,0,0,82,0
2017/01/16,15:55:07,7,833,0.964172,-0.264709,-0.013916,-0.00238037,-1.60994,0.15921,30.7063,-0.0078125,0,0.492188,-0.0078125,0,0,83,0
2017/01/16,15:55:07,7,834,0.963989,-0.265564,-0.013855,-0.00238037,-1.60314,0.158737,30.8063,-0.0078125,0,0.492188,-0.0078125,0,0,83,0
2017/01/16,15:55:07,7,901,0.963989,-0.265564,-0.013855,-0.00238037,-1.60314,0.158737,30.8063,-0.0078125,0,0.492188,-0.0078125,0,0,83,0
2017/01/16,15:55:07,7,902,0.963745,-0.266479,-0.013855,-0.00238037,-1.603,0.160263,30.9149,-0.0078125,0,0.492188,-0.0078125,0,0,83,0
2017/01/16,15:55:07,7,903,0.963745,-0.266479,-0.013855,-0.00238037,-1.603,0.160263,30.9149,-0.0078125,0,0.492188,-0.0078125,0,0,83,0
2017/01/16,15:55:07,7,983,0.963501,-0.267334,-0.0137939,-0.00238037,-1.5961,0.159821,31.0168,-0.0078125,0,0.5,-0.0078125,0,0,83,0
2017/01/16,15:55:07,7,984,0.963501,-0.267334,-0.0137939,-0.00238037,-1.5961,0.159821,31.0168,-0.0078125,0,0.492188,-0.0078125,0,0,83,0
2017/01/16,15:55:07,7,985,0.963257,-0.268188,-0.0137939,-0.00238037,-1.59595,0.161224,31.1186,-0.0078125,0,0.492188,-0.0078125,0,0,83,0
2017/01/16,15:55:07,7,983,0.963257,-0.268188,-0.0137939,-0.00238037,-1.59595,0.161224,31.1186,-0.0078125,0,0.492188,-0.0078125,0,0,83,0
2017/01/16,15:55:07,7,984,0.963013,-0.269043,-0.0137939,-0.00238037,-1.5958,0.162643,31.2205,-0.0078125,0,0.492188,-0.0078125,0,0,83,0
2017/01/16,15:55:08,8,16,0.963013,-0.269043,-0.0137939,-0.00238037,-1.5958,0.162643,31.2205,-0.0078125,0,0.492188,-0.0078125,0,0,83,0
2017/01/16,15:55:08,8,52,0.962769,-0.269897,-0.0137939,-0.00238037,-1.59565,0.164062,31.3223,-0.0078125,0,0.492188,-0.0078125,0,0,83,0
2017/01/16,15:55:08,8,53,0.962769,-0.269897,-0.0137939,-0.00238037,-1.59565,0.164062,31.3223,-0.0078125,0,0.5,-0.0078125,0,0,82,0
2017/01/16,15:55:08,8,54,0.962524,-0.270752,-0.0137329,-0.00238037,-1.58876,0.163589,31.4242,-0.0078125,0,0.492188,-0.0078125,0,0,82,0
2017/01/16,15:55:08,8,53,0.962524,-0.270752,-0.0137329,-0.00238037,-1.58876,0.163589,31.4242,-0.0078125,0,0.492188,-0.0078125,0,0,82,0
2017/01/16,15:55:08,8,54,0.96228,-0.271667,-0.0137329,-0.00238037,-1.58862,0.165115,31.5328,-0.0078125,0,0.492188,-0.0078125,0,0,82,0
2017/01/16,15:55:08,8,55,0.96228,-0.271667,-0.0137329,-0.00238037,-1.58862,0.165115,31.5328,-0.0078125,0,0.492188,-0.0078125,0,0,83,0
2017/01/16,15:55:08,8,116,0.962036,-0.272522,-0.0137329,-0.00231934,-1.58657,0.173248,31.6347,-0.0078125,0,0.492188,-0.0078125,0,0,82,0
2017/01/16,15:55:08,8,167,0.962036,-0.272522,-0.0137329,-0.00231934,-1.58657,0.173248,31.6347,-0.0078125,0,0.492188,-0.0078125,0,0,83,0
2017/01/16,15:55:08,8,168,0.961792,-0.273376,-0.0136719,-0.00238037,-1.58159,0.166016,31.7365,-0.0078125,0,0.492188,-0.0078125,0,0,82,0
2017/01/16,15:55:08,8,169,0.961792,-0.273376,-0.0136719,-0.00238037,-1.58159,0.166016,31.7365,-0.0078125,0,0.492188,-0.0078125,0,0,83,0
2017/01/16,15:55:08,8,200,0.961548,-0.274231,-0.0136719,-0.00238037,-1.58144,0.167419,31.8383,-0.0078125,0,0.492188,-0.0078125,0,0,83,0
2017/01/16,15:55:08,8,201,0.961548,-0.274231,-0.0136719,-0.00238037,-1.58144,0.167419,31.8383,-0.0078125,0,0.492188,-0.0078125,0,0,83,0
2017/01/16,15:55:08,8,202,0.961304,-0.275085,-0.0136719,-0.00238037,-1.58129,0.168823,31.9402,-0.0078125,0,0.492188,-0.0078125,0,0,83,0
2017/01/16,15:55:08,8,233,0.961304,-0.275085,-0.0136719,-0.00238037,-1.58129,0.168823,31.9402,-0.0078125,0,0.492188,-0.0078125,0,0,83,0
2017/01/16,15:55:08,8,234,0.96106,-0.27594,-0.0137329,-0.00238037,-1.58787,0.17215,32.0421,-0.0078125,0,0.492188,-0.0078125,0,0,82,0
2017/01/16,15:55:08,8,235,0.96106,-0.27594,-0.0137329,-0.00238037,-1.58787,0.17215,32.0421,-0.0078125,0,0.492188,-0.0078125,0,0,82,0
2017/01/16,15:55:08,8,299,0.960815,-0.276794,-0.0137329,-0.00244141,-1.58965,0.166855,32.1439,-0.0078125,0,0.492188,-0.0078125,0,0,82,0
2017/01/16,15:55:08,8,300,0.960815,-0.276794,-0.0137329,-0.00244141,-1.58965,0.166855,32.1439,-0.0078125,0,0.492188,-0.0078125,0,0,82,0
2017/01/16,15:55:08,8,316,0.960571,-0.277649,-0.0136719,-0.00250244,-1.58473,0.159607,32.2456,0,0,0.5,-0.0078125,0,0,82,0
2017/01/16,15:55:08,8,349,0.960571,-0.277649,-0.0136719,-0.00250244,-1.58473,0.159607,32.2456,-0.0078125,0,0.5,-0.0078125,0,0,83,0
2017/01/16,15:55:08,8,350,0.960327,-0.278503,-0.0136719,-0.00256348,-1.58654,0.154282,32.3474,-0.0078125,0,0.492188,-0.0078125,0,0,83,0
2017/01/16,15:55:08,8,351,0.960327,-0.278503,-0.0136719,-0.00256348,-1.58654,0.154282,32.3474,-0.0078125,0,0.5,-0.0078125,0,0,83,0
2017/01/16,15:55:08,8,450,0.960083,-0.279358,-0.0137329,-0.00256348,-1.59313,0.157654,32.4493,-0.0078125,0,0.492188,-0.0078125,0,0,82,0
2017/01/16,15:55:08,8,451,0.960083,-0.279358,-0.0137329,-0.00256348,-1.59313,0.157654,32.4493,-0.0078125,0,0.5,-0.0078125,0,0,83,0
2017/01/16,15:55:08,8,452,0.959839,-0.280212,-0.0137329,-0.00262451,-1.59495,0.152344,32.5511,-0.0078125,0,0.492188,-0.0078125,0,0,83,0
2017/01/16,15:55:08,8,569,0.959839,-0.280212,-0.0137329,-0.00262451,-1.59495,0.152344,32.5511,-0.0078125,0,0.5,-0.0078125,0,0,83,0
2017/01/16,15:55:08,8,570,0.959595,-0.281067,-0.0137329,-0.00268555,-1.59679,0.147064,32.6528,-0.0078125,0,0.492188,-0.0078125,0,0,83,0
2017/01/16,15:55:08,8,571,0.959595,-0.281067,-0.0137329,-0.00268555,-1.59679,0.147064,32.6528,-0.0078125,0,0.492188,-0.0078125,0,0,83,0
2017/01/16,15:55:08,8,616,0.95929,-0.281921,-0.0137939,-0.00268555,-1.60329,0.150482,32.7567,-0.0078125,0,0.5,-0.0078125,0,0,82,0
2017/01/16,15:55:08,8,617,0.95929,-0.281921,-0.0137939,-0.00268555,-1.60329,0.150482,32.7567,-0.0078125,0,0.492188,-0.0078125,0,0,82,0
2017/01/16,15:55:08,8,618,0.959045,-0.282776,-0.0137939,-0.00268555,-1.60316,0.151917,32.8586,-0.0078125,0,0.492188,-0.0078125,0,0,82,0
2017/01/16,15:55:08,8,670,0.959045,-0.282776,-0.0137939,-0.00268555,-1.60316,0.151917,32.8586,-0.0078125,0,0.492188,-0.0078125,0,0,82,0
2017/01/16,15:55:08,8,683,0.958801,-0.28363,-0.0137939,-0.00274658,-1.60503,0.146622,32.9604,-0.0078125,0,0.492188,-0.0078125,0,0,82,0
2017/01/16,15:55:08,8,684,0.958801,-0.28363,-0.0137939,-0.00274658,-1.60503,0.146622,32.9604,-0.0078125,0,0.492188,-0.0078125,0,0,82,0
2017/01/16,15:55:08,8,716,0.958557,-0.284485,-0.0137939,-0.00268555,-1.60292,0.154755,33.0623,-0.0078125,0,0.492188,-0.0078125,0,0,82,0
2017/01/16,15:55:08,8,717,0.958557,-0.284485,-0.0137939,-0.00268555,-1.60292,0.154755,33.0623,-0.0078125,0,0.5,-0.0078125,0,0,83,0
2017/01/16,15:55:08,8,718,0.958313,-0.2854,-0.0137939,-0.00274658,-1.60481,0.149567,33.1708,-0.0078125,0,0.492188,-0.0078125,0,0,83,0
2017/01/16,15:55:08,8,766,0.958313,-0.2854,-0.0137939,-0.00274658,-1.60481,0.149567,33.1708,-0.0078125,0,0.492188,-0.0078125,0,0,83,0
2017/01/16,15:55:08,8,767,0.958008,-0.286255,-0.0137939,-0.00274658,-1.6046,0.151031,33.2746,-0.0078125,0,0.492188,-0.0078125,0,0,83,0
2017/01/16,15:55:08,8,768,0.958008,-0.286255,-0.0137939,-0.00274658,-1.6046,0.151031,33.2746,-0.0078125,0,0.492188,-0.0078125,0,0,83,0
2017/01/16,15:55:08,8,803,0.957764,-0.287048,-0.0137939,-0.00280762,-1.60647,0.14566,33.3697,-0.0078125,0,0.5,-0.0078125,0,0,83,0
2017/01/16,15:55:08,8,804,0.957764,-0.287048,-0.0137939,-0.00280762,-1.60647,0.14566,33.3697,-0.0078125,0,0.5,-0.0078125,0,0,83,0
2017/01/16,15:55:08,8,805,0.95752,-0.287964,-0.0137329,-0.00280762,-1.59968,0.145157,33.4782,-0.0078125,0,0.492188,-0.0078125,0,0,83,0
2017/01/16,15:55:08,8,866,0.95752,-0.287964,-0.0137329,-0.00280762,-1.59968,0.145157,33.4782,-0.0078125,0,0.492188,-0.0078125,0,0,83,0
2017/01/16,15:55:08,8,867,0.957275,-0.288818,-0.0137939,-0.00280762,-1.60627,0.148605,33.5801,-0.0078125,0,0.5,-0.0078125,0,0,83,0
2017/01/16,15:55:08,8,868,0.957275,-0.288818,-0.0137939,-0.00280762,-1.60627,0.148605,33.5801,-0.0078125,0,0.492188,-0.0078125,0,0,83,0
2017/01/16,15:55:08,8,953,0.957031,-0.289673,-0.0137939,-0.00286865,-1.60818,0.143326,33.6819,-0.0078125,0,0.492188,-0.0078125,0,0,82,0
2017/01/16,15:55:08,8,954,0.957031,-0.289673,-0.0137939,-0.00286865,-1.60818,0.143326,33.6819,-0.0078125,0,0.492188,-0.0078125,0,0,82,0
2017/01/16,15:55:08,8,955,0.956726,-0.290527,-0.0137939,-0.00286865,-1.60798,0.144791,33.7858,-0.0078125,0,0.492188,-0.0078125,0,0,82,0
2017/01/16,15:55:09,9,17,0.956726,-0.290527,-0.0137939,-0.00286865,-1.60798,0.144791,33.7858,-0.0078125,0,0.492188,-0.0078125,0,0,82,0
2017/01/16,15:55:09,9,18,0.956482,-0.291382,-0.0137939,-0.00280762,-1.60584,0.152924,33.8877,-0.0078125,0,0.492188,-0.0078125,0,0,82,0
2017/01/16,15:55:09,9,19,0.956482,-0.291382,-0.0137939,-0.00280762,-1.60584,0.152924,33.8877,-0.0078125,0,0.492188,-0.0078125,0,0,82,0
2017/01/16,15:55:09,9,83,0.956238,-0.292236,-0.0137329,-0.00280762,-1.59904,0.152298,33.9895,-0.0078125,0,0.492188,-0.0078125,0,0,82,0
2017/01/16,15:55:09,9,170,0.956238,-0.292236,-0.0137329,-0.00280762,-1.59904,0.152298,33.9895,-0.0078125,0,0.492188,-0.0078125,0,0,82,0
2017/01/16,15:55:09,9,183,0.956238,-0.292236,-0.0137329,-0.00280762,-1.59904,0.152298,33.9895,-0.0078125,0,0.492188,-0.0078125,0,0,82,0
2017/01/16,15:55:09,9,184,0.955933,-0.293152,-0.0137329,-0.00280762,-1.59885,0.153839,34.1001,-0.0078125,0,0.492188,-0.0078125,0,0,82,0
2017/01/16,15:55:09,9,185,0.955933,-0.293152,-0.0137329,-0.00280762,-1.59885,0.153839,34.1001,-0.0078125,0,0.492188,-0.0078125,0,0,82,0
2017/01/16,15:55:09,9,233,0.955688,-0.294006,-0.0137329,-0.00280762,-1.59874,0.155258,34.202,-0.0078125,0,0.492188,-0.0078125,0,0,83,0
2017/01/16,15:55:09,9,234,0.955688,-0.294006,-0.0137329,-0.00280762,-1.59874,0.155258,34.202,-0.0078125,0,0.492188,-0.0078125,0,0,83,0
2017/01/16,15:55:09,9,235,0.955444,-0.294861,-0.0136719,-0.00280762,-1.59195,0.154617,34.3038,-0.0078125,0,0.492188,-0.0078125,0,0,83,0
2017/01/16,15:55:09,9,250,0.955444,-0.294861,-0.0136719,-0.00280762,-1.59195,0.154617,34.3038,-0.0078125,0,0.492188,-0.0078125,0,0,82,0
2017/01/16,15:55:09,9,251,0.955139,-0.295715,-0.0137329,-0.00286865,-1.6005,0.151443,34.4076,-0.0078125,0,0.492188,-0.0078125,0,0,82,0
2017/01/16,15:55:09,9,252,0.955139,-0.295715,-0.0137329,-0.00286865,-1.6005,0.151443,34.4076,-0.0078125,0,0.492188,-0.0078125,0,0,82,0
2017/01/16,15:55:09,9,266,0.954895,-0.29657,-0.0137329,-0.00286865,-1.60039,0.152863,34.5095,-0.0078125,0,0.5,-0.0078125,0,0,82,0
2017/01/16,15:55:09,9,267,0.954895,-0.29657,-0.0137329,-0.00286865,-1.60039,0.152863,34.5095,-0.0078125,0,0.492188,-0.0078125,0,0,82,0
2017/01/16,15:55:09,9,268,0.954651,-0.297424,-0.0137329,-0.00286865,-1.60029,0.154282,34.6113,-0.0078125,0,0.492188,-0.0078125,0,0,82,0
2017/01/16,15:55:09,9,283,0.954651,-0.297424,-0.0137329,-0.00286865,-1.60029,0.154282,34.6113,-0.0078125,0,0.492188,-0.0078125,0,0,82,0
2017/01/16,15:55:09,9,284,0.954346,-0.298279,-0.0137939,-0.00292969,-1.60885,0.151154,34.7152,-0.0078125,0,0.492188,-0.0078125,0,0,82,0
2017/01/16,15:55:09,9,285,0.954346,-0.298279,-0.0137939,-0.00292969,-1.60885,0.151154,34.7152,-0.0078125,0,0.5,-0.0078125,0,0,82,0
2017/01/16,15:55:09,9,283,0.954102,-0.299133,-0.0137939,-0.00299072,-1.61085,0.14592,34.8169,-0.0078125,0,0.492188,-0.0078125,0,0,82,0
2017/01/16,15:55:09,9,302,0.953857,-0.299927,-0.0137329,-0.00299072,-1.60406,0.145157,34.912,-0.0078125,0,0.492188,-0.0078125,0,0,82,0
2017/01/16,15:55:09,9,303,0.953857,-0.299927,-0.0137329,-0.00299072,-1.60406,0.145157,34.912,-0.0078125,0,0.492188,-0.0078125,0,0,82,0
2017/01/16,15:55:09,9,316,0.953857,-0.299927,-0.0137329,-0.00299072,-1.60406,0.145157,34.912,-0.0078125,0,0.492188,-0.0078125,0,0,82,0
2017/01/16,15:55:09,9,334,0.953552,-0.300781,-0.0137329,-0.00299072,-1.60387,0.146606,35.016,-0.0078125,0,0.5,-0.0078125,0,0,83,0
2017/01/16,15:55:09,9,335,0.953552,-0.300781,-0.0137329,-0.00299072,-1.60387,0.146606,35.016,-0.0078125,0,0.5,-0.0078125,0,0,83,0
2017/01/16,15:55:09,9,349,0.953308,-0.301636,-0.0137329,-0.00305176,-1.60589,0.141357,35.1177,-0.0078125,0,0.492188,-0.0078125,0,0,82,0
2017/01/16,15:55:09,9,350,0.953308,-0.301636,-0.0137329,-0.00305176,-1.60589,0.141357,35.1177,-0.0078125,0,0.492188,-0.0078125,0,0,82,0
2017/01/16,15:55:09,9,351,0.953003,-0.30249,-0.0137329,-0.00311279,-1.60783,0.136154,35.2216,-0.0078125,0,0.492188,-0.0078125,0,0,82,0
2017/01/16,15:55:09,9,386,0.953003,-0.30249,-0.0137329,-0.00311279,-1.60783,0.136154,35.2216,-0.0078125,0,0.492188,-0.0078125,0,0,83,0
2017/01/16,15:55:09,9,400,0.952759,-0.303345,-0.0137329,-0.00311279,-1.60775,0.137589,35.3234,-0.0078125,0,0.492188,-0.0078125,0,0,83,0
2017/01/16,15:55:09,9,452,0.952759,-0.303345,-0.0137329,-0.00311279,-1.60775,0.137589,35.3234,-0.0078125,0,0.492188,-0.0078125,0,0,83,0
2017/01/16,15:55:09,9,516,0.952454,-0.304199,-0.0137329,-0.00311279,-1.60757,0.139038,35.4273,-0.0078125,0,0.492188,-0.0078125,0,0,83,0
2017/01/16,15:55:09,9,517,0.952454,-0.304199,-0.0137329,-0.00311279,-1.60757,0.139038,35.4273,-0.0078125,0,0.5,-0.0078125,0,0,83,0
2017/01/16,15:55:09,9,536,0.952209,-0.305115,-0.0137329,-0.00317383,-1.60965,0.133896,35.5357,-0.0078125,0,0.5,-0.0078125,0,0,83,0
2017/01/16,15:55:09,9,537,0.952209,-0.305115,-0.0137329,-0.00317383,-1.60965,0.133896,35.5357,-0.0078125,0,0.5,-0.0078125,0,0,83,0
2017/01/16,15:55:09,9,583,0.951904,-0.305969,-0.0137939,-0.00323486,-1.61828,0.130829,35.6396,-0.0078125,0,0.5,-0.0078125,0,0,83,0
2017/01/16,15:55:09,9,683,0.951904,-0.305969,-0.0137939,-0.00323486,-1.61828,0.130829,35.6396,-0.0078125,0,0.5,-0.0078125,0,0,83,0
2017/01/16,15:55:09,9,684,0.95166,-0.306763,-0.013916,-0.0032959,-1.63365,0.129807,35.7348,-0.0078125,0,0.492188,-0.0078125,0,0,83,0
2017/01/16,15:55:09,9,685,0.95166,-0.306763,-0.013916,-0.0032959,-1.63365,0.129807,35.7348,-0.0078125,0,0.492188,-0.0078125,0,0,83,0
2017/01/16,15:55:09,9,686,0.951355,-0.307617,-0.0139771,-0.00341797,-1.64445,0.120132,35.8386,-0.0078125,0,0.5,-0.0078125,-0.0078125,0,82,0
2017/01/16,15:55:09,9,684,0.951355,-0.307617,-0.0139771,-0.00341797,-1.64445,0.120132,35.8386,-0.0078125,0,0.492188,-0.0078125,-0.0078125,0,82,0
2017/01/16,15:55:09,9,703,0.951111,-0.308472,-0.0140991,-0.00354004,-1.66202,0.112595,35.9403,-0.0078125,0,0.492188,-0.0078125,-0.0078125,0,82,0
2017/01/16,15:55:09,9,733,0.951111,-0.308472,-0.0140991,-0.00354004,-1.66202,0.112595,35.9403,-0.0078125,0,0.492188,-0.0078125,-0.0078125,0,83,0
2017/01/16,15:55:09,9,749,0.950806,-0.309326,-0.0141602,-0.00366211,-1.67286,0.102966,36.0441,-0.0078125,0,0.492188,-0.0078125,-0.0078125,0,82,0
2017/01/16,15:55:09,9,883,0.950806,-0.309326,-0.0141602,-0.00366211,-1.67286,0.102966,36.0441,-0.0078125,0,0.492188,-0.0078125,-0.0078125,0,82,0
2017/01/16,15:55:09,9,884,0.950562,-0.310181,-0.0142822,-0.00378418,-1.69046,0.0954895,36.1458,-0.0078125,0,0.492188,-0.0078125,-0.0078125,0,83,0
2017/01/16,15:55:09,9,885,0.950562,-0.310181,-0.0142822,-0.00378418,-1.69046,0.0954895,36.1458,-0.0078125,0,0.492188,-0.0078125,-0.0078125,0,83,0
2017/01/16,15:55:09,9,886,0.950256,-0.311035,-0.0143433,-0.00396729,-1.70351,0.0792542,36.2495,-0.0078125,0,0.5,-0.0078125,-0.0078125,0,83,0
2017/01/16,15:55:09,9,884,0.950256,-0.311035,-0.0143433,-0.00396729,-1.70351,0.0792542,36.2495,-0.0078125,0,0.492188,-0.0078125,-0.0078125,0,82,0
2017/01/16,15:55:09,9,885,0.950012,-0.31189,-0.0144043,-0.00408936,-1.71451,0.0696564,36.3511,0,0,0.492188,-0.0078125,-0.0078125,0,82,0
2017/01/16,15:55:09,9,916,0.950012,-0.31189,-0.0144043,-0.00408936,-1.71451,0.0696564,36.3511,0,0,0.492188,-0.0078125,0,0,82,0
2017/01/16,15:55:09,9,950,0.949707,-0.312744,-0.0144043,-0.00421143,-1.71878,0.0579224,36.4549,-0.0078125,0,0.492188,-0.0078125,-0.0078125,0,83,0
2017/01/16,15:55:10,10,16,0.949707,-0.312744,-0.0144043,-0.00421143,-1.71878,0.0579224,36.4549,-0.0078125,0,0.492188,-0.0078125,0,0,82,0
2017/01/16,15:55:10,10,17,0.949402,-0.313538,-0.0144043,-0.00421143,-1.71866,0.0593872,36.5522,-0.0078125,0,0.492188,-0.0078125,-0.0078125,0,82,0
2017/01/16,15:55:10,10,33,0.949402,-0.313538,-0.0144043,-0.00421143,-1.71866,0.0593872,36.5522,-0.0078125,0,0.492188,-0.0078125,0,0,83,0
2017/01/16,15:55:10,10,52,0.949402,-0.31366,-0.0144043,-0.00439453,-1.72531,0.0396576,36.5652,-0.0078125,0,0.492188,-0.0078125,0,0,83,0
2017/01/16,15:55:10,10,83,0.949402,-0.31366,-0.0144043,-0.00439453,-1.72531,0.0396576,36.5652,-0.0078125,0,0.492188,-0.0078125,0,0,83,0
2017/01/16,15:55:10,10,117,0.949402,-0.313599,-0.0142822,-0.00457764,-1.71857,0.0152435,36.5582,-0.0078125,0,0.492188,-0.0078125,0,0,82,0
2017/01/16,15:55:10,10,133,0.949402,-0.313599,-0.0142822,-0.00457764,-1.71857,0.0152435,36.5582,-0.0078125,0,0.492188,-0.0078125,-0.0078125,0,83,0
2017/01/16,15:55:10,10,166,0.949402,-0.313599,-0.0142822,-0.00476074,-1.72515,-0.00469971,36.5579,-0.0078125,0,0.492188,-0.0078125,-0.0078125,0,83,0
2017/01/16,15:55:10,10,184,0.949402,-0.313599,-0.0142822,-0.00476074,-1.72515,-0.00469971,36.5579,0,0,0.492188,-0.0078125,-0.0078125,0,83,0
2017/01/16,15:55:10,10,217,0.949402,-0.313599,-0.0142822,-0.00506592,-1.73613,-0.0379181,36.5574,-0.0078125,0,0.492188,-0.0078125,-0.0078125,0,83,0
2017/01/16,15:55:10,10,218,0.949402,-0.313599,-0.0142822,-0.00506592,-1.73613,-0.0379181,36.5574,-0.0078125,0,0.492188,-0.0078125,-0.0078125,0,82,0
2017/01/16,15:55:10,10,286,0.949402,-0.313538,-0.0143433,-0.00531006,-1.75151,-0.0623932,36.5504,0,0,0.492188,-0.0078125,-0.0078125,0,82,0
2017/01/16,15:55:10,10,287,0.949402,-0.313538,-0.0143433,-0.00531006,-1.75151,-0.0623932,36.5504,-0.0078125,0,0.492188,-0.0078125,-0.0078125,0,82,0
2017/01/16,15:55:10,10,299,0.949463,-0.313538,-0.0142822,-0.00549316,-1.75155,-0.084549,36.5479,-0.0078125,0,0.492188,-0.0078125,0,0,82,0
2017/01/16,15:55:10,10,336,0.949463,-0.313538,-0.0142822,-0.00549316,-1.75155,-0.084549,36.5479,0,0,0.492188,-0.0078125,0,0,82,0
2017/01/16,15:55:10,10,367,0.949402,-0.313538,-0.0142822,-0.00567627,-1.75803,-0.104462,36.5497,0,0,0.492188,-0.0078125,0,0,82,0
2017/01/16,15:55:10,10,386,0.949402,-0.313538,-0.0142822,-0.00567627,-1.75803,-0.104462,36.5497,-0.0078125,0,0.492188,-0.0078125,0,0,83,0
2017/01/16,15:55:10,10,400,0.949402,-0.313538,-0.0142212,-0.0057373,-1.75358,-0.113297,36.5496,0,0,0.492188,-0.0078125,0,0,82,0
2017/01/16,15:55:10,10,450,0.949402,-0.313538,-0.0142212,-0.0057373,-1.75358,-0.113297,36.5496,0,0,0.492188,-0.0078125,0,0,82,0
2017/01/16,15:55:10,10,451,0.949402,-0.313538,-0.0140381,-0.00567627,-1.73146,-0.113235,36.5496,-0.0078125,0,0.492188,-0.0078125,0,0,82,0
2017/01/16,15:55:10,10,483,0.949402,-0.313538,-0.0140381,-0.00567627,-1.73146,-0.113235,36.5496,0,0,0.492188,-0.0078125,0,0,82,0
2017/01/16,15:55:10,10,535,0.949402,-0.313538,-0.013916,-0.00579834,-1.72256,-0.130905,36.5494,0,0,0.492188,-0.0078125,0,0,82,0
2017/01/16,15:55:10,10,536,0.949402,-0.313538,-0.013916,-0.00579834,-1.72256,-0.130905,36.5494,-0.0078125,0,0.492188,-0.0078125,0,0,82,0
2017/01/16,15:55:10,10,549,0.949402,-0.313599,-0.013855,-0.00592041,-1.72034,-0.146286,36.5558,-0.0078125,0,0.492188,-0.0078125,0,0,82,0
2017/01/16,15:55:10,10,582,0.949402,-0.313599,-0.013855,-0.00592041,-1.72034,-0.146286,36.5558,-0.0078125,0,0.5,-0.0078125,-0.0078125,0,82,0
2017/01/16,15:55:10,10,600,0.949402,-0.313599,-0.0137939,-0.00604248,-1.71809,-0.161774,36.5556,0,0,0.5,-0.0078125,-0.0078125,0,82,0
2017/01/16,15:55:10,10,632,0.949402,-0.313599,-0.0137939,-0.00604248,-1.71809,-0.161774,36.5556,-0.0078125,0,0.492188,-0.0078125,-0.0078125,0,83,0
2017/01/16,15:55:10,10,668,0.949402,-0.313599,-0.0140991,-0.00714111,-1.7908,-0.270386,36.5538,-0.0078125,0,0.492188,-0.0078125,-0.0078125,0,83,0
2017/01/16,15:55:10,10,683,0.949402,-0.313599,-0.0140991,-0.00714111,-1.7908,-0.270386,36.5538,-0.0078125,0,0.507812,-0.0078125,-0.0078125,0,83,0
2017/01/16,15:55:10,10,719,0.949402,-0.313416,-0.0143433,-0.0111694,-1.96198,-0.700516,36.5261,0,0,0.554688,-0.0078125,-0.015625,-0.0078125,83,0
2017/01/16,15:55:10,10,733,0.949402,-0.313416,-0.0143433,-0.0111694,-1.96198,-0.700516,36.5261,-0.015625,-0.015625,0.539062,-0.0234375,-0.015625,-0.0078125,83,0
2017/01/16,15:55:10,10,783,0.94989,-0.310974,-0.0217896,-0.0221558,-3.16291,-1.63795,36.2095,0.015625,-0.015625,0.546875,-0.03125,-0.0078125,-0.0078125,83,0
2017/01/16,15:55:10,10,784,0.94989,-0.310974,-0.0217896,-0.0221558,-3.16291,-1.63795,36.2095,0.03125,-0.0234375,0.554688,-0.0390625,-0.0078125,-0.0078125,82,0
2017/01/16,15:55:10,10,820,0.950134,-0.306641,-0.0436401,-0.0359497,-6.02574,-2.39464,35.6472,0.015625,-0.046875,0.578125,-0.046875,-0.0078125,-0.0078125,82,0
2017/01/16,15:55:10,10,833,0.950134,-0.306641,-0.0436401,-0.0359497,-6.02574,-2.39464,35.6472,0,-0.0703125,0.585938,-0.0546875,-0.0078125,-0.0078125,82,0
2017/01/16,15:55:10,10,869,0.94812,-0.303406,-0.0801392,-0.0507202,-10.5294,-2.77211,35.2347,-0.0078125,-0.0859375,0.59375,-0.0625,-0.0078125,-0.0078125,81,0
2017/01/16,15:55:10,10,883,0.94812,-0.303406,-0.0801392,-0.0507202,-10.5294,-2.77211,35.2347,-0.0234375,-0.117188,0.648438,-0.0703125,-0.0078125,-0.0078125,80,0
2017/01/16,15:55:10,10,932,0.943848,-0.295776,-0.129883,-0.069519,-16.6368,-3.25459,34.3232,-0.0546875,-0.125,0.65625,-0.078125,-0.0078125,-0.015625,79,0
2017/01/16,15:55:10,10,986,0.943848,-0.295776,-0.129883,-0.069519,-16.6368,-3.25459,34.3232,-0.101562,-0.101562,0.609375,-0.0859375,-0.0078125,-0.0234375,78,0
2017/01/16,15:55:10,10,987,0.936707,-0.279602,-0.190002,-0.0908203,-24.0002,-4.01083,32.3873,0,-0.046875,0.492188,-0.0859375,-0.0078125,-0.0234375,76,0
2017/01/16,15:55:11,11,71,0.936707,-0.279602,-0.190002,-0.0908203,-24.0002,-4.01083,32.3873,-0.109375,0.359375,0.414062,-0.0703125,-0.0234375,-0.03125,75,0
2017/01/16,15:55:11,11,72,0.93103,-0.255737,-0.233276,-0.115356,-29.5628,-6.30293,29.0538,-0.179688,0.453125,0.546875,-0.015625,0.0078125,-0.0234375,74,0
2017/01/16,15:55:11,11,73,0.93103,-0.255737,-0.233276,-0.115356,-29.5628,-6.30293,29.0538,0.0078125,0.273438,0.390625,0.03125,0.0234375,-0.015625,72,0
2017/01/16,15:55:11,11,71,0.943726,-0.240662,-0.208008,-0.0906982,-25.8655,-4.52989,27.5717,-0.0625,0.203125,0.382812,0.03125,0.0078125,0,71,0
2017/01/16,15:55:11,11,83,0.943726,-0.240662,-0.208008,-0.0906982,-25.8655,-4.52989,27.5717,-0.09375,0.179688,0.429688,0.0390625,0.015625,0.015625,70,0
2017/01/16,15:55:11,11,133,0.951843,-0.250061,-0.166138,-0.0617065,-20.3122,-2.1011,29.0629,-0.0390625,0.125,0.453125,0.046875,0.0234375,0.015625,70,0
2017/01/16,15:55:11,11,134,0.951843,-0.250061,-0.166138,-0.0617065,-20.3122,-2.1011,29.0629,-0.046875,0.0703125,0.484375,0.046875,0.015625,0.0234375,69,0
2017/01/16,15:55:11,11,183,0.954895,-0.27063,-0.119446,-0.024292,-13.9612,1.07814,31.7789,-0.0625,0.0078125,0.523438,0.0546875,0.015625,0.03125,70,0
2017/01/16,15:55:11,11,184,0.954895,-0.27063,-0.119446,-0.024292,-13.9612,1.07814,31.7789,-0.0703125,-0.03125,0.585938,0.0546875,0.015625,0.03125,70,0
2017/01/16,15:55:11,11,200,0.952148,-0.296387,-0.0738525,0.00805664,-7.80843,3.42123,34.8144,-0.0859375,-0.0390625,0.671875,0.0625,0.015625,0.03125,71,0
2017/01/16,15:55:11,11,233,0.952148,-0.296387,-0.0738525,0.00805664,-7.80843,3.42123,34.8144,-0.0546875,-0.101562,0.671875,0.0859375,0.0078125,0.03125,73,0
2017/01/16,15:55:11,11,265,0.945984,-0.320801,-0.0134888,0.0442505,0.164489,5.3006,37.4579,-0.0703125,-0.195312,0.640625,0.0859375,0.0078125,0.03125,75,0
2017/01/16,15:55:11,11,282,0.945984,-0.320801,-0.0134888,0.0442505,0.164489,5.3006,37.4579,-0.0859375,-0.257812,0.640625,0.078125,0,0.0234375,77,0
2017/01/16,15:55:11,11,320,0.935913,-0.34137,0.0479736,0.0718994,7.98344,5.90231,39.6661,-0.078125,-0.320312,0.601562,0.0703125,0,0.0234375,81,0
2017/01/16,15:55:11,11,333,0.935913,-0.34137,0.0479736,0.0718994,7.98344,5.90231,39.6661,-0.0859375,-0.375,0.539062,0.0625,0,0.015625,84,0
2017/01/16,15:55:11,11,351,0.927124,-0.3526,0.0880737,0.0909424,13.1466,6.28056,40.9207,-0.015625,-0.484375,0.4375,0.046875,0,0,88,0
2017/01/16,15:55:11,11,383,0.927124,-0.3526,0.0880737,0.0909424,13.1466,6.28056,40.9207,0.046875,-0.539062,0.351562,0.0234375,0,-0.0234375,92,0
2017/01/16,15:55:11,11,416,0.928467,-0.344421,0.098938,0.097229,14.5187,6.66782,39.855,0.0546875,-0.523438,0.335938,0,0,-0.0390625,95,0
2017/01/16,15:55:11,11,433,0.928467,-0.344421,0.098938,0.097229,14.5187,6.66782,39.855,0.0234375,-0.476562,0.351562,-0.0234375,-0.0078125,-0.0390625,99,0
2017/01/16,15:55:11,11,450,0.941956,-0.317444,0.0685425,0.085083,10.5531,6.82185,36.6174,-0.015625,-0.390625,0.382812,-0.0390625,0,-0.03125,102,0
2017/01/16,15:55:11,11,483,0.941956,-0.317444,0.0685425,0.085083,10.5531,6.82185,36.6174,-0.460938,0.46875,0.679688,-0.0703125,-0.109375,0.015625,104,0.0624941
2017/01/16,15:55:11,11,501,0.948181,-0.314148,0.036438,0.0307617,5.07313,2.03903,36.5714,-0.0625,0.109375,0.726562,-0.078125,-0.078125,0.015625,105,0
2017/01/16,15:55:11,11,534,0.948181,-0.314148,0.036438,0.0307617,5.07313,2.03903,36.5714,-0.0859375,-0.078125,0.304688,-0.046875,-0.0234375,-0.0078125,105,0
2017/01/16,15:55:11,11,583,0.947754,-0.318176,-0.0185547,-0.0136719,-2.51441,-0.809128,37.0977,-0.0078125,0.0078125,0.492188,-0.0078125,-0.0078125,0,104,0
2017/01/16,15:55:11,11,584,0.947754,-0.318176,-0.0185547,-0.0136719,-2.51441,-0.809128,37.0977,0,0,0.492188,-0.0078125,-0.0078125,0,103,0
2017/01/16,15:55:11,11,616,0.947693,-0.318298,-0.0174561,-0.0145264,-2.42625,-0.941772,37.111,0,0.0078125,0.492188,-0.0078125,-0.0078125,0,102,0
2017/01/16,15:55:11,11,650,0.947693,-0.318298,-0.0174561,-0.0145264,-2.42625,-0.941772,37.111,0,0.0078125,0.492188,-0.0078125,-0.0078125,0,100,0
2017/01/16,15:55:11,11,651,0.947693,-0.318359,-0.0166626,-0.0148926,-2.35348,-1.01036,37.1168,0,0.0078125,0.5,-0.0078125,-0.0078125,0,99,0
2017/01/16,15:55:11,11,686,0.947693,-0.318359,-0.0166626,-0.0148926,-2.35348,-1.01036,37.1168,0,0.0078125,0.5,-0.0078125,0,0,97,0
2017/01/16,15:55:11,11,733,0.947693,-0.31842,-0.0161743,-0.0148926,-2.30051,-1.028,37.1236,0,0.0078125,0.5,-0.0078125,0,0,96,0
2017/01/16,15:55:11,11,753,0.947693,-0.31842,-0.0161743,-0.0148926,-2.30051,-1.028,37.1236,0,0.0078125,0.492188,-0.0078125,0,0,96,0
2017/01/16,15:55:11,11,754,0.947693,-0.31842,-0.0161743,-0.0146484,-2.2916,-1.00148,37.1242,0,0.0078125,0.492188,-0.0078125,0,0,96,0
2017/01/16,15:55:11,11,785,0.947693,-0.31842,-0.0161743,-0.0146484,-2.2916,-1.00148,37.1242,0,0.0078125,0.492188,-0.0078125,0,0,96,0
2017/01/16,15:55:11,11,799,0.947693,-0.318359,-0.0163574,-0.0143433,-2.30026,-0.961761,37.1183,0,0.0078125,0.492188,-0.0078125,0,0,96,0
2017/01/16,15:55:11,11,833,0.947693,-0.318359,-0.0163574,-0.0143433,-2.30026,-0.961761,37.1183,0,0.0078125,0.492188,-0.0078125,0,0,96,0
2017/01/16,15:55:11,11,899,0.947693,-0.318359,-0.0164795,-0.0140991,-2.30461,-0.930786,37.1189,0,0.0078125,0.492188,-0.0078125,0,0,96,0
2017/01/16,15:55:11,11,900,0.947693,-0.318359,-0.0164795,-0.0140991,-2.30461,-0.930786,37.1189,0,0.0078125,0.492188,-0.0078125,0,0,96,0
2017/01/16,15:55:11,11,901,0.947754,-0.318237,-0.0170288,-0.0135498,-2.34419,-0.851334,37.1047,0,0.0078125,0.492188,-0.0078125,0,0,96,0
2017/01/16,15:55:11,11,968,0.947754,-0.318237,-0.0170288,-0.0135498,-2.34419,-0.851334,37.1047,0,0.0078125,0.492188,-0.0078125,0,0,96,0
2017/01/16,15:55:11,11,969,0.947754,-0.318115,-0.0180664,-0.0125732,-2.42115,-0.707642,37.0939,0,0,0.492188,-0.0078125,0,0,96,0
2017/01/16,15:55:11,11,983,0.947754,-0.318115,-0.0180664,-0.0125732,-2.42115,-0.707642,37.0939,-0.0078125,0.0078125,0.5,-0.0078125,0,0,96,0
2017/01/16,15:55:12,12,50,0.947937,-0.317688,-0.0193481,-0.0113525,-2.51579,-0.529327,37.0441,-0.0078125,0,0.5,-0.0078125,0,-0.0078125,96,0
2017/01/16,15:55:12,12,51,0.947937,-0.317688,-0.0193481,-0.0113525,-2.51579,-0.529327,37.0441,-0.0078125,0,0.507812,-0.0078125,0,-0.0078125,96,0
2017/01/16,15:55:12,12,52,0.948364,-0.31604,-0.0229492,-0.0103149,-2.86875,-0.290253,36.8538,0,-0.0078125,0.515625,-0.015625,0,-0.0078125,95,0
2017/01/16,15:55:12,12,151,0.948364,-0.31604,-0.0229492,-0.0103149,-2.86875,-0.290253,36.8538,0,-0.015625,0.523438,-0.0234375,0,-0.0078125,95,0
2017/01/16,15:55:12,12,152,0.948486,-0.314209,-0.0370483,-0.0137329,-4.5259,-0.159164,36.6511,0,-0.0234375,0.507812,-0.0234375,0,-0.0078125,95,0
2017/01/16,15:55:12,12,153,0.948486,-0.314209,-0.0370483,-0.0137329,-4.5259,-0.159164,36.6511,-0.0078125,-0.03125,0.507812,-0.0234375,0,0,95,0
2017/01/16,15:55:12,12,167,0.947937,-0.313293,-0.0547485,-0.0175171,-6.59049,0.0631256,36.5811,-0.0078125,-0.0390625,0.507812,-0.03125,0,0,95,0
2017/01/16,15:55:12,12,200,0.947937,-0.313293,-0.0547485,-0.0175171,-6.59049,0.0631256,36.5811,-0.0078125,-0.0546875,0.515625,-0.03125,0,0,94,0
2017/01/16,15:55:12,12,201,0.946716,-0.3125,-0.0740967,-0.022644,-8.88488,0.199249,36.5504,-0.015625,-0.0625,0.515625,-0.03125,0,0,93,0
2017/01/16,15:55:12,12,250,0.946716,-0.3125,-0.0740967,-0.022644,-8.88488,0.199249,36.5504,-0.0078125,-0.078125,0.523438,-0.03125,0,0,92,0
2017/01/16,15:55:12,12,268,0.944702,-0.311707,-0.0974731,-0.029541,-11.688,0.289688,36.5505,-0.015625,-0.09375,0.523438,-0.0390625,-0.0078125,0,91,0
2017/01/16,15:55:12,12,300,0.944702,-0.311707,-0.0974731,-0.029541,-11.688,0.289688,36.5505,-0.015625,-0.101562,0.546875,-0.046875,-0.0078125,-0.0078125,90,0
2017/01/16,15:55:12,12,382,0.941406,-0.309937,-0.126648,-0.0402832,-15.2734,0.15799,36.4671,-0.0234375,-0.109375,0.617188,-0.0546875,-0.0078125,-0.0078125,88,0
2017/01/16,15:55:12,12,383,0.941406,-0.309937,-0.126648,-0.0402832,-15.2734,0.15799,36.4671,-0.0078125,-0.140625,0.6875,-0.0703125,-0.015625,-0.0078125,87,0
2017/01/16,15:55:12,12,384,0.934692,-0.30658,-0.169617,-0.0598755,-20.7194,-0.485672,36.2303,-0.015625,-0.164062,0.78125,-0.09375,-0.015625,-0.0078125,85,0
2017/01/16,15:55:12,12,400,0.934692,-0.30658,-0.169617,-0.0598755,-20.7194,-0.485672,36.2303,0.015625,-0.195312,0.882812,-0.117188,-0.015625,-0.0078125,83,0
2017/01/16,15:55:12,12,419,0.918274,-0.298828,-0.242554,-0.0930176,-30.0698,-1.71281,35.5921,-0.0703125,-0.242188,0.9375,-0.148438,-0.015625,-0.0078125,80,0
2017/01/16,15:55:12,12,433,0.918274,-0.298828,-0.242554,-0.0930176,-30.0698,-1.71281,35.5921,-0.117188,-0.15625,0.992188,-0.15625,-0.015625,-0.0078125,78,0
2017/01/16,15:55:12,12,469,0.886169,-0.283875,-0.341614,-0.131775,-42.8648,-3.09727,34.3084,-0.21875,0.046875,0.890625,-0.171875,0,-0.015625,74,0
2017/01/16,15:55:12,12,483,0.886169,-0.283875,-0.341614,-0.131775,-42.8648,-3.09727,34.3084,-0.164062,0.734375,0.28125,-0.195312,0.0234375,-0.0390625,71,0
2017/01/16,15:55:12,12,516,0.842346,-0.241455,-0.45575,-0.156311,-57.4883,-4.61572,29.4568,-0.109375,0.625,0.523438,-0.109375,0.03125,-0.046875,67,0.0801279
2017/01/16,15:55:12,12,552,0.842346,-0.241455,-0.45575,-0.156311,-57.4883,-4.61572,29.4568,0.179688,0.25,0.367188,0.0625,0,-0.0234375,64,0
2017/01/16,15:55:12,12,603,0.874268,-0.20697,-0.417297,-0.13678,-51.839,-6.17142,23.6361,-0.03125,0.179688,0.296875,0.0625,-0.03125,0,61,0
2017/01/16,15:55:12,12,604,0.874268,-0.20697,-0.417297,-0.13678,-51.839,-6.17142,23.6361,-0.0625,0.171875,0.351562,0.078125,-0.015625,0.015625,59,0
2017/01/16,15:55:12,12,616,0.900513,-0.229126,-0.346069,-0.129578,-43.0518,-5.87436,26.232,-0.0390625,0.117188,0.390625,0.09375,0,0.0234375,59,0
2017/01/16,15:55:12,12,686,0.900513,-0.229126,-0.346069,-0.129578,-43.0518,-5.87436,26.232,-0.0625,0.0546875,0.453125,0.109375,-0.0078125,0.015625,59,0
2017/01/16,15:55:12,12,687,0.926331,-0.25824,-0.256714,-0.0967407,-31.7065,-3.14252,30.2619,-0.101562,-0.0390625,0.492188,0.109375,-0.0078125,0.0078125,60,0
2017/01/16,15:55:12,12,688,0.926331,-0.25824,-0.256714,-0.0967407,-31.7065,-3.14252,30.2619,-0.117188,-0.0859375,0.570312,0.109375,0,0,62,0
2017/01/16,15:55:12,12,717,0.946289,-0.274841,-0.158752,-0.0612183,-19.5179,-1.73874,32.0919,-0.140625,-0.078125,0.695312,0.109375,0.0078125,-0.0078125,64,0
2017/01/16,15:55:12,12,767,0.946289,-0.274841,-0.158752,-0.0612183,-19.5179,-1.73874,32.0919,-0.164062,-0.15625,0.789062,0.117188,0.015625,-0.0078125,67,0
2017/01/16,15:55:12,12,768,0.9599,-0.2724,-0.0643921,-0.0159912,-7.60437,0.253235,31.7025,-0.179688,-0.195312,0.882812,0.125,0.0234375,-0.0078125,70,0
2017/01/16,15:55:12,12,800,0.9599,-0.2724,-0.0643921,-0.0159912,-7.60437,0.253235,31.7025,-0.125,-0.234375,0.960938,0.132812,0.0390625,0.0078125,74,0
2017/01/16,15:55:12,12,801,0.960938,-0.271179,0.0308838,0.045166,4.80995,4.03154,31.349,-0.101562,-0.289062,0.984375,0.132812,0.0390625,0.0234375,78,0
2017/01/16,15:55:12,12,833,0.943909,-0.289429,0.118835,0.105103,16.5695,7.77344,32.9603,-0.0546875,-0.429688,0.976562,0.125,0.0390625,0.03125,83,0
2017/01/16,15:55:12,12,869,0.943909,-0.289429,0.118835,0.105103,16.5695,7.77344,32.9603,0,-0.554688,0.929688,0.125,0.0390625,0.0390625,89,0
2017/01/16,15:55:12,12,883,0.92572,-0.309448,0.167358,0.13855,23.3035,9.58667,34.9858,-0.0234375,-0.820312,0.671875,0.078125,0.0234375,0.0234375,95,0
2017/01/16,15:55:12,12,920,0.92572,-0.309448,0.167358,0.13855,23.3035,9.58667,34.9858,0.15625,-0.9375,0.46875,0.0546875,0.03125,-0.015625,101,0
2017/01/16,15:55:12,12,933,0.928528,-0.296387,0.159607,0.156555,22.9048,12.2929,32.9066,0.34375,-0.929688,0.34375,0.015625,0.015625,-0.03125,107,0
2017/01/16,15:55:12,12,966,0.928528,-0.296387,0.159607,0.156555,22.9048,12.2929,32.9066,0.210938,-0.75,0.367188,-0.015625,-0.015625,-0.03125,111,0
2017/01/16,15:55:12,12,983,0.944824,-0.278076,0.11792,0.126404,17.0453,10.443,31.2306,0.0859375,-0.546875,0.414062,-0.0390625,-0.0234375,-0.0234375,115,0
2017/01/16,15:55:13,13,16,0.944824,-0.278076,0.11792,0.126404,17.0453,10.443,31.2306,0.0390625,-0.367188,0.4375,-0.046875,-0.0234375,-0.0078125,118,0
2017/01/16,15:55:13,13,33,0.954224,-0.279602,0.0768433,0.0733032,10.8153,5.66299,32.1263,-0.078125,0.640625,0.140625,-0.09375,-0.09375,0.0078125,119,0.136617
2017/01/16,15:55:13,13,67,0.954224,-0.279602,0.0768433,0.0733032,10.8153,5.66299,32.1263,-0.0390625,0.0625,0.84375,-0.117188,-0.109375,-0.0078125,120,0
2017/01/16,15:55:13,13,103,0.960083,-0.279419,-0.00683594,-0.00848389,-1.02377,-0.714661,32.4474,0.0859375,-0.03125,0.929688,-0.125,-0.0078125,0.0078125,119,0
2017/01/16,15:55:13,13,135,0.960083,-0.279419,-0.00683594,-0.00848389,-1.02377,-0.714661,32.4474,-0.0234375,-0.0390625,0.640625,-0.0546875,-0.0234375,-0.0078125,116,0
2017/01/16,15:55:13,13,203,0.959717,-0.277588,-0.0338745,-0.0275269,-4.60593,-1.95642,32.1852,0,0,0.492188,-0.0078125,-0.0078125,0,115,0
2017/01/16,15:55:13,13,204,0.959717,-0.277588,-0.0338745,-0.0275269,-4.60593,-1.95642,32.1852,0,0,0.492188,-0.0078125,-0.0078125,0,112,0
2017/01/16,15:55:13,13,205,0.959656,-0.277649,-0.0338135,-0.0281372,-4.61864,-2.02547,32.1909,0.0078125,0,0.5,-0.0078125,-0.0078125,0,109,0
2017/01/16,15:55:13,13,219,0.959656,-0.277649,-0.0338135,-0.0281372,-4.61864,-2.02547,32.1909,0,0,0.492188,-0.0078125,-0.0078125,0,107,0
2017/01/16,15:55:13,13,252,0.959656,-0.277649,-0.0330811,-0.027832,-4.52809,-2.01503,32.1929,0,0,0.5,-0.0078125,-0.0078125,0,104,0
2017/01/16,15:55:13,13,317,0.959656,-0.277649,-0.0330811,-0.027832,-4.52809,-2.01503,32.1929,0,0,0.492188,-0.0078125,0,0,102,0
2017/01/16,15:55:13,13,318,0.959717,-0.277649,-0.0323486,-0.0272827,-4.43,-1.97765,32.1941,0,0,0.492188,-0.0078125,-0.0078125,0,101,0
2017/01/16,15:55:13,13,319,0.959717,-0.277649,-0.0323486,-0.0272827,-4.43,-1.97765,32.1941,0,0,0.492188,-0.0078125,-0.0078125,0,101,0
2017/01/16,15:55:13,13,350,0.959778,-0.277588,-0.0317383,-0.0270386,-4.35492,-1.97034,32.187,0,0,0.492188,-0.0078125,-0.0078125,0,101,0
2017/01/16,15:55:13,13,400,0.959778,-0.277588,-0.0317383,-0.0270386,-4.35492,-1.97034,32.187,0,0,0.492188,-0.0078125,-0.0078125,0,101,0
2017/01/16,15:55:13,13,401,0.959839,-0.277466,-0.03125,-0.0267944,-4.29312,-1.95944,32.1731,0,0,0.5,-0.0078125,-0.0078125,0,101,0
2017/01/16,15:55:13,13,436,0.959839,-0.277466,-0.03125,-0.0267944,-4.29312,-1.95944,32.1731,0,0,0.492188,-0.0078125,-0.0078125,0,101,0
2017/01/16,15:55:13,13,449,0.9599,-0.277344,-0.0305786,-0.0265503,-4.21113,-1.95433,32.1593,0,0,0.492188,-0.0078125,-0.0078125,0,101,0
2017/01/16,15:55:13,13,467,0.9599,-0.277344,-0.0305786,-0.0265503,-4.21113,-1.95433,32.1593,0,0,0.5,-0.0078125,-0.0078125,0,101,0
2017/01/16,15:55:13,13,499,0.959961,-0.277222,-0.0299072,-0.0262451,-4.1272,-1.94247,32.1458,0,0,0.492188,-0.0078125,-0.0078125,0,101,0
2017/01/16,15:55:13,13,517,0.959961,-0.277222,-0.0299072,-0.0262451,-4.1272,-1.94247,32.1458,0,0,0.5,-0.0078125,0,0,101,0
2017/01/16,15:55:13,13,550,0.960022,-0.277039,-0.029541,-0.0256958,-4.06898,-1.89426,32.1264,0.0078125,0,0.492188,-0.0078125,0,0,101,0
2017/01/16,15:55:13,13,582,0.960022,-0.277039,-0.029541,-0.0256958,-4.06898,-1.89426,32.1264,0,0,0.5,-0.0078125,0,0,101,0
2017/01/16,15:55:13,13,583,0.960144,-0.276733,-0.0293579,-0.0249634,-4.02502,-1.8205,32.0922,0,0,0.492188,-0.0078125,0,0,100,0
2017/01/16,15:55:13,13,617,0.960144,-0.276733,-0.0293579,-0.0249634,-4.02502,-1.8205,32.0922,0,0,0.492188,-0.0078125,0,0,101,0
2017/01/16,15:55:13,13,649,0.960327,-0.276245,-0.0296021,-0.0238037,-4.01437,-1.68683,32.0374,0,-0.0078125,0.5,-0.0078125,0,0,101,0
2017/01/16,15:55:13,13,667,0.960327,-0.276245,-0.0296021,-0.0238037,-4.01437,-1.68683,32.0374,0,-0.0078125,0.570312,-0.0078125,0,-0.0078125,100,0
2017/01/16,15:55:13,13,736,0.96051,-0.274902,-0.0365601,-0.0231323,-4.7582,-1.39932,31.8846,-0.0078125,-0.015625,0.570312,-0.0390625,0.0078125,-0.0078125,101,0
2017/01/16,15:55:13,13,786,0.96051,-0.274902,-0.0365601,-0.0231323,-4.7582,-1.39932,31.8846,0,-0.0234375,0.585938,-0.0546875,0.0078125,-0.0078125,101,0
2017/01/16,15:55:13,13,799,0.958801,-0.272583,-0.0755005,-0.0253906,-9.12692,-0.436935,31.7056,-0.0078125,-0.046875,0.59375,-0.0625,0,-0.0078125,101,0
2017/01/16,15:55:13,13,800,0.958801,-0.272583,-0.0755005,-0.0253906,-9.12692,-0.436935,31.7056,-0.0234375,-0.078125,0.679688,-0.0703125,0,0,100,0
2017/01/16,15:55:13,13,801,0.953247,-0.270142,-0.129272,-0.0394897,-15.533,-0.323715,31.6003,0,-0.117188,0.75,-0.09375,-0.0078125,-0.0078125,99,0
2017/01/16,15:55:13,13,836,0.953247,-0.270142,-0.129272,-0.0394897,-15.533,-0.323715,31.6003,0.03125,-0.09375,0.835938,-0.117188,-0.015625,-0.0078125,98,0
2017/01/16,15:55:13,13,849,0.937439,-0.264526,-0.213806,-0.0740967,-26.1078,-1.64696,31.1341,0.046875,-0.140625,0.992188,-0.148438,-0.015625,-0.0078125,97,0
2017/01/16,15:55:13,13,882,0.937439,-0.264526,-0.213806,-0.0740967,-26.1078,-1.64696,31.1341,0.0234375,-0.15625,0.992188,-0.171875,-0.0234375,0,94,0
2017/01/16,15:55:13,13,899,0.899048,-0.25592,-0.332947,-0.123901,-41.4593,-4.00725,30.2616,-0.203125,0.0234375,0.992188,-0.195312,-0.03125,-0.0078125,91,0
2017/01/16,15:55:13,13,917,0.899048,-0.25592,-0.332947,-0.123901,-41.4593,-4.00725,30.2616,-0.25,0.625,0.539062,-0.226562,-0.0234375,-0.015625,86,0
2017/01/16,15:55:13,13,950,0.837891,-0.233337,-0.461609,-0.174194,-58.7429,-8.47923,26.3443,-0.328125,0.976562,0.375,-0.203125,-0.015625,-0.0234375,82,0
2017/01/16,15:55:13,13,983,0.837891,-0.233337,-0.461609,-0.174194,-58.7429,-8.47923,26.3443,0.0390625,0.523438,0.421875,0.046875,0.03125,-0.0234375,77,0
2017/01/16,15:55:13,13,999,0.866211,-0.213867,-0.424805,-0.153381,-53.2781,-8.07655,23.6818,0.03125,0.125,0.273438,0.0703125,-0.0234375,-0.015625,72,0
2017/01/16,15:55:14,14,19,0.866211,-0.213867,-0.424805,-0.153381,-53.2781,-8.07655,23.6818,-0.1875,0.179688,0.265625,0.0625,-0.03125,-0.0078125,67,0
2017/01/16,15:55:14,14,50,0.892822,-0.228149,-0.357544,-0.151672,-45.0444,-8.76611,25.0281,-0.15625,0.179688,0.320312,0.078125,0.0078125,0,64,0
2017/01/16,15:55:14,14,69,0.892822,-0.228149,-0.357544,-0.151672,-45.0444,-8.76611,25.0281,-0.078125,0.117188,0.367188,0.09375,0.015625,0.015625,62,0
2017/01/16,15:55:14,14,120,0.922668,-0.249634,-0.274048,-0.106323,-33.9725,-4.1057,29.024,-0.109375,0.09375,0.46875,0.109375,0.015625,0.0234375,60,0
2017/01/16,15:55:14,14,133,0.922668,-0.249634,-0.274048,-0.106323,-33.9725,-4.1057,29.024,-0.109375,0.0234375,0.554688,0.125,0.015625,0.0234375,61,0
2017/01/16,15:55:14,14,134,0.943909,-0.279358,-0.169739,-0.0466919,-20.2748,0.40863,33.0462,-0.0859375,-0.078125,0.625,0.125,0.0234375,0.015625,62,0
2017/01/16,15:55:14,14,217,0.943909,-0.279358,-0.169739,-0.0466919,-20.2748,0.40863,33.0462,-0.078125,-0.117188,0.75,0.125,0.0234375,0.0078125,64,0
2017/01/16,15:55:14,14,218,0.954834,-0.28833,-0.0698242,0.0140991,-7.19292,3.88351,33.8496,-0.109375,-0.109375,0.953125,0.125,0.03125,0,67,0
2017/01/16,15:55:14,14,219,0.954834,-0.28833,-0.0698242,0.0140991,-7.19292,3.88351,33.8496,-0.132812,-0.210938,0.992188,0.148438,0.03125,-0.0078125,70,0
2017/01/16,15:55:14,14,282,0.956116,-0.280151,0.0368652,0.0770264,6.52594,7.32347,32.2441,-0.164062,-0.429688,0.992188,0.15625,0.03125,0,74,0
2017/01/16,15:55:14,14,319,0.956116,-0.280151,0.0368652,0.0770264,6.52594,7.32347,32.2441,-0.179688,-0.664062,0.992188,0.148438,0.03125,0.0234375,78,0
2017/01/16,15:55:14,14,320,0.940796,-0.285522,0.124084,0.13385,18.0539,10.975,32.0162,-0.0859375,-0.890625,0.851562,0.117188,0.0390625,0.03125,83,0
2017/01/16,15:55:14,14,366,0.940796,-0.285522,0.124084,0.13385,18.0539,10.975,32.0162,0.109375,-1,0.578125,0.0859375,0.046875,0.015625,87,0
2017/01/16,15:55:14,14,367,0.927734,-0.295288,0.146973,0.174622,22.0757,14.8315,32.4026,0.398438,-1,0.367188,0.0390625,0.03125,-0.0078125,92,0
2017/01/16,15:55:14,14,434,0.927734,-0.295288,0.146973,0.174622,22.0757,14.8315,32.4026,0.40625,-1,0.3125,-0.0078125,-0.0078125,-0.015625,97,0
2017/01/16,15:55:14,14,435,0.939636,-0.284668,0.114075,0.151428,17.4931,13.315,31.6511,0.1875,-0.75,0.390625,-0.0390625,-0.03125,-0.015625,102,0
2017/01/16,15:55:14,14,436,0.939636,-0.284668,0.114075,0.151428,17.4931,13.315,31.6511,0.0390625,0.546875,0.4375,-0.09375,-0.148438,0,106,0.180873
2017/01/16,15:55:14,14,434,0.957886,-0.277588,0.0664673,0.0301514,8.28374,1.20808,32.2349,-0.109375,-0.15625,0.835938,-0.15625,-0.0859375,0,109,0
2017/01/16,15:55:14,14,483,0.957886,-0.277588,0.0664673,0.0301514,8.28374,1.20808,32.2349,0.0859375,0,0.914062,-0.125,-0.0078125,0,110,0
2017/01/16,15:55:14,14,550,0.959045,-0.280823,-0.0296021,-0.0219727,-3.96346,-1.46585,32.5909,-0.0234375,-0.0546875,0.5625,-0.0234375,-0.015625,-0.0078125,109,0
2017/01/16,15:55:14,14,551,0.959045,-0.280823,-0.0296021,-0.0219727,-3.96346,-1.46585,32.5909,-0.0078125,0,0.5,-0.0078125,-0.0078125,0,107,0
2017/01/16,15:55:14,14,569,0.958923,-0.280823,-0.0314331,-0.0231934,-4.20414,-1.54153,32.589,0,0,0.5,-0.0078125,0,0,104,0
2017/01/16,15:55:14,14,583,0.958923,-0.280823,-0.0314331,-0.0231934,-4.20414,-1.54153,32.589,0,0,0.492188,-0.0078125,0,0,100,0
2017/01/16,15:55:14,14,620,0.958923,-0.280945,-0.0308838,-0.022644,-4.12622,-1.49811,32.605,0,0,0.492188,-0.0078125,0,0,96,0
2017/01/16,15:55:14,14,621,0.958923,-0.280945,-0.0308838,-0.022644,-4.12622,-1.49811,32.605,0,0.0078125,0.5,-0.0078125,0,0,92,0
2017/01/16,15:55:14,14,666,0.958984,-0.281006,-0.0300903,-0.0220337,-4.01947,-1.45612,32.6126,0,0,0.492188,-0.0078125,0,0,89,0
2017/01/16,15:55:14,14,667,0.958984,-0.281006,-0.0300903,-0.0220337,-4.01947,-1.45612,32.6126,0,0,0.492188,-0.0078125,0,0,87,0
2017/01/16,15:55:14,14,716,0.958984,-0.281006,-0.029541,-0.0214233,-3.93926,-1.40654,32.6154,0,0,0.492188,-0.0078125,0,0,86,0
2017/01/16,15:55:14,14,733,0.958984,-0.281006,-0.029541,-0.0214233,-3.93926,-1.40654,32.6154,0,0,0.492188,-0.0078125,0,0,86,0
2017/01/16,15:55:14,14,752,0.959045,-0.280945,-0.0289307,-0.0209351,-3.85633,-1.37262,32.6088,0,0,0.492188,-0.0078125,0,0,86,0
2017/01/16,15:55:14,14,766,0.959045,-0.280945,-0.0289307,-0.0209351,-3.85633,-1.37262,32.6088,0,0,0.492188,-0.0078125,0,0,86,0
2017/01/16,15:55:14,14,803,0.959106,-0.280884,-0.0285034,-0.0203857,-3.7916,-1.32608,32.6025,0,0,0.492188,-0.0078125,0,0,86,0
2017/01/16,15:55:14,14,817,0.959106,-0.280884,-0.0285034,-0.0203857,-3.7916,-1.32608,32.6025,-0.0078125,0,0.492188,-0.0078125,0,0,86,0
2017/01/16,15:55:14,14,853,0.959167,-0.280762,-0.0283813,-0.0195923,-3.75249,-1.24306,32.5903,0,0,0.492188,-0.0078125,0,0,85,0
2017/01/16,15:55:14,14,886,0.959167,-0.280762,-0.0283813,-0.0195923,-3.75249,-1.24306,32.5903,0,0,0.492188,-0.0078125,0,0,85,0
2017/01/16,15:55:14,14,900,0.959229,-0.280579,-0.0285034,-0.0186157,-3.73426,-1.13226,32.572,-0.0078125,0,0.5,-0.0078125,0,0,85,0
2017/01/16,15:55:14,14,936,0.959229,-0.280579,-0.0285034,-0.0186157,-3.73426,-1.13226,32.572,-0.0078125,0,0.492188,-0.0078125,0,0,85,0
2017/01/16,15:55:14,14,966,0.95929,-0.280334,-0.0289917,-0.017334,-3.74646,-0.976303,32.5481,-0.0078125,0,0.5,-0.0078125,0,0,85,0
2017/01/16,15:55:14,14,967,0.95929,-0.280334,-0.0289917,-0.017334,-3.74646,-0.976303,32.5481,-0.0078125,0,0.492188,-0.0078125,0,-0.0078125,85,0
2017/01/16,15:55:14,14,999,0.959534,-0.279541,-0.0298462,-0.015625,-3.78499,-0.763672,32.4596,-0.0078125,-0.0078125,0.515625,-0.0078125,0,-0.0078125,86,0
2017/01/16,15:55:15,15,36,0.959534,-0.279541,-0.0298462,-0.015625,-3.78499,-0.763672,32.4596,-0.0234375,0,0.585938,-0.0234375,0,-0.0078125,85,0
2017/01/16,15:55:15,15,50,0.959351,-0.277893,-0.0464478,-0.0157471,-5.61661,-0.253265,32.2968,-0.0078125,-0.0234375,0.578125,-0.046875,0,-0.0078125,86,0
2017/01/16,15:55:15,15,87,0.959351,-0.277893,-0.0464478,-0.0157471,-5.61661,-0.253265,32.2968,-0.0234375,-0.03125,0.59375,-0.0546875,0,-0.0078125,85,0
2017/01/16,15:55:15,15,100,0.957153,-0.275513,-0.0861816,-0.0231323,-10.2373,0.186646,32.1332,-0.0234375,-0.0625,0.640625,-0.0625,0,-0.0078125,85,0
2017/01/16,15:55:15,15,119,0.957153,-0.275513,-0.0861816,-0.0231323,-10.2373,0.186646,32.1332,-0.046875,-0.078125,0.75,-0.0859375,-0.0078125,-0.0078125,84,0
2017/01/16,15:55:15,15,150,0.949951,-0.271851,-0.147034,-0.0453491,-17.6984,-0.373886,31.8812,-0.0390625,-0.132812,0.820312,-0.117188,-0.0234375,-0.0078125,83,0
2017/01/16,15:55:15,15,183,0.949951,-0.271851,-0.147034,-0.0453491,-17.6984,-0.373886,31.8812,-0.046875,-0.132812,0.992188,-0.148438,-0.0234375,-0.0078125,82,0
2017/01/16,15:55:15,15,184,0.928894,-0.260864,-0.247131,-0.0896606,-30.3909,-2.50058,30.6937,-0.0625,-0.171875,0.992188,-0.1875,-0.0234375,-0.0078125,79,0
2017/01/16,15:55:15,15,220,0.928894,-0.260864,-0.247131,-0.0896606,-30.3909,-2.50058,30.6937,-0.164062,0.078125,0.992188,-0.203125,-0.0234375,-0.015625,76,0
2017/01/16,15:55:15,15,251,0.883362,-0.242065,-0.375977,-0.140503,-47.0769,-5.5788,28.2172,-0.21875,0.664062,0.664062,-0.234375,-0.0234375,-0.0234375,72,0
2017/01/16,15:55:15,15,283,0.883362,-0.242065,-0.375977,-0.140503,-47.0769,-5.5788,28.2172,-0.25,0.984375,0.335938,-0.210938,-0.0234375,-0.0234375,68,0
2017/01/16,15:55:15,15,301,0.843079,-0.216553,-0.461182,-0.172241,-58.4543,-9.98064,23.2175,0.015625,0.554688,0.421875,0.0390625,0.0078125,-0.0078125,64,0
2017/01/16,15:55:15,15,333,0.843079,-0.216553,-0.461182,-0.172241,-58.4543,-9.98064,23.2175,0.015625,0.1875,0.289062,0.0625,-0.015625,0.0078125,61,0
2017/01/16,15:55:15,15,366,0.873718,-0.231079,-0.397705,-0.158142,-50.1792,-8.30956,25.7323,-0.101562,0.1875,0.28125,0.0625,-0.0234375,0.0078125,58,0
2017/01/16,15:55:15,15,368,0.873718,-0.231079,-0.397705,-0.158142,-50.1792,-8.30956,25.7323,-0.09375,0.195312,0.304688,0.078125,-0.0078125,0.015625,56,0
2017/01/16,15:55:15,15,403,0.899048,-0.258606,-0.326416,-0.135498,-41.0721,-5.69444,29.9607,-0.0703125,0.171875,0.382812,0.09375,0,0.015625,55,0
2017/01/16,15:55:15,15,416,0.899048,-0.258606,-0.326416,-0.135498,-41.0721,-5.69444,29.9607,-0.078125,0.125,0.46875,0.117188,0,0.0234375,55,0
2017/01/16,15:55:15,15,466,0.925293,-0.288696,-0.228821,-0.0898438,-28.3807,-2.22429,34.0939,-0.09375,0.046875,0.546875,0.125,0.0078125,0.0234375,56,0
2017/01/16,15:55:15,15,503,0.925293,-0.288696,-0.228821,-0.0898438,-28.3807,-2.22429,34.0939,-0.109375,-0.03125,0.65625,0.132812,0.015625,0.015625,58,0
2017/01/16,15:55:15,15,504,0.943054,-0.309143,-0.117981,-0.0336304,-14.0825,0.562119,36.3688,-0.109375,-0.101562,0.789062,0.132812,0.0234375,0,61,0
2017/01/16,15:55:15,15,516,0.943054,-0.309143,-0.117981,-0.0336304,-14.0825,0.562119,36.3688,-0.132812,-0.125,0.960938,0.132812,0.0234375,-0.0078125,64,0
2017/01/16,15:55:15,15,550,0.950928,-0.307861,-0.0133057,0.0280151,-0.461574,3.52447,35.8928,-0.164062,-0.179688,0.992188,0.148438,0.03125,-0.0078125,67,0
2017/01/16,15:55:15,15,586,0.950928,-0.307861,-0.0133057,0.0280151,-0.461574,3.52447,35.8928,-0.15625,-0.4375,0.992188,0.164062,0.03125,0,71,0
2017/01/16,15:55:15,15,599,0.944458,-0.299377,0.0951538,0.0963135,13.7335,7.39085,34.2842,-0.164062,-0.695312,0.992188,0.148438,0.03125,0.0234375,78,0
2017/01/16,15:55:15,15,703,0.944458,-0.299377,0.0951538,0.0963135,13.7335,7.39085,34.2842,-0.0859375,-0.953125,0.859375,0.117188,0.0390625,0.03125,86,0
2017/01/16,15:55:15,15,704,0.924561,-0.31427,0.156372,0.148071,22.4712,10.9497,35.3655,0.09375,-1,0.585938,0.078125,0.046875,0.015625,95,0
2017/01/16,15:55:15,15,705,0.924561,-0.31427,0.156372,0.148071,22.4712,10.9497,35.3655,0.4375,-1,0.359375,0.03125,0.0390625,-0.015625,104,0
2017/01/16,15:55:15,15,703,0.922668,-0.311279,0.148865,0.172058,22.4466,14.0793,34.4782,0.351562,-1,0.3125,-0.0078125,-0.0078125,-0.03125,114,0
2017/01/16,15:55:15,15,734,0.922668,-0.311279,0.148865,0.172058,22.4466,14.0793,34.4782,0.046875,-0.734375,0.40625,-0.046875,-0.03125,-0.0234375,123,0
2017/01/16,15:55:15,15,749,0.942932,-0.297302,0.0904541,0.119629,13.9878,10.1991,33.7452,0.0234375,0.4375,0.25,-0.101562,-0.117188,0,132,0.179365
2017/01/16,15:55:15,15,785,0.942932,-0.297302,0.0904541,0.119629,13.9878,10.1991,33.7452,0.046875,0.140625,0.96875,-0.140625,-0.109375,0,139,0
2017/01/16,15:55:15,15,800,0.954102,-0.298828,0.0186157,0.00445557,2.1884,-0.150436,34.7844,-0.0234375,-0.0625,0.992188,-0.132812,-0.015625,0,142,0
2017/01/16,15:55:15,15,800,0.954102,-0.298828,0.0186157,0.00445557,2.1884,-0.150436,34.7844,-0.0234375,-0.0625,0.992188,-0.132812,-0.015625,0,142,0
2017/01/16,15:55:15,15,837,0.954102,-0.298828,0.0186157,0.00445557,2.1884,-0.150436,34.7844,0.0078125,-0.015625,0.523438,-0.0234375,-0.015625,-0.0078125,142,0
2017/01/16,15:55:15,15,850,0.954163,-0.297058,-0.0266113,-0.0241089,-3.73297,-1.73419,34.5292,0,0,0.5,-0.0078125,-0.0078125,0,141,0
2017/01/16,15:55:15,15,883,0.954163,-0.297058,-0.0266113,-0.0241089,-3.73297,-1.73419,34.5292,0,0.0078125,0.5,-0.0078125,0,0,138,0
2017/01/16,15:55:15,15,900,0.954102,-0.297241,-0.026001,-0.0237427,-3.65392,-1.71411,34.5532,0,0.0078125,0.5,-0.0078125,0,0,136,0
2017/01/16,15:55:15,15,933,0.954102,-0.297241,-0.026001,-0.0237427,-3.65392,-1.71411,34.5532,0,0.0078125,0.492188,-0.0078125,0,0,133,0
2017/01/16,15:55:15,15,970,0.954163,-0.297241,-0.0253906,-0.0231323,-3.56641,-1.66795,34.5538,0,0.0078125,0.5,-0.0078125,0,0,130,0
2017/01/16,15:55:15,15,971,0.954163,-0.297241,-0.0253906,-0.0231323,-3.56641,-1.66795,34.5538,0,0.0078125,0.5,-0.0078125,0,0,128,0
2017/01/16,15:55:16,16,0,0.954224,-0.297241,-0.0251465,-0.0223389,-3.51276,-1.58928,34.5549,0,0.0078125,0.492188,-0.0078125,0,0,127,0
2017/01/16,15:55:16,16,120,0.954224,-0.297241,-0.0251465,-0.0223389,-3.51276,-1.58928,34.5549,0,0.0078125,0.492188,-0.0078125,0,0,127,0
2017/01/16,15:55:16,16,121,0.954285,-0.297058,-0.0250854,-0.0214233,-3.47456,-1.49171,34.5363,0,0.0078125,0.492188,-0.0078125,0,0,127,0
2017/01/16,15:55:16,16,122,0.954285,-0.297058,-0.0250854,-0.0214233,-3.47456,-1.49171,34.5363,0,0,0.492188,-0.0078125,0,0,127,0
2017/01/16,15:55:16,16,120,0.954346,-0.296875,-0.0250244,-0.0204468,-3.43431,-1.38744,34.5178,0,0.0078125,0.492188,-0.0078125,0,0,127,0
2017/01/16,15:55:16,16,121,0.954346,-0.296875,-0.0250244,-0.0204468,-3.43431,-1.38744,34.5178,0,0.0078125,0.492188,-0.0078125,0,0,127,0
2017/01/16,15:55:16,16,152,0.954468,-0.296631,-0.0251465,-0.0194092,-3.41213,-1.27043,34.4907,0,0.0078125,0.492188,-0.0078125,0,0,127,0
2017/01/16,15:55:16,16,183,0.954468,-0.296631,-0.0251465,-0.0194092,-3.41213,-1.27043,34.4907,0,0.0078125,0.5,-0.0078125,0,0,127,0
2017/01/16,15:55:16,16,218,0.954529,-0.296387,-0.0253296,-0.0184326,-3.3986,-1.15807,34.4654,0,0,0.492188,-0.0078125,0,0,127,0
2017/01/16,15:55:16,16,232,0.954529,-0.296387,-0.0253296,-0.0184326,-3.3986,-1.15807,34.4654,-0.0078125,0,0.5,-0.0078125,0,0,127,0
2017/01/16,15:55:16,16,266,0.95459,-0.296143,-0.0258179,-0.0172119,-3.41027,-1.00858,34.4409,-0.0078125,0.0078125,0.5,-0.0078125,0,0,127,0
2017/01/16,15:55:16,16,267,0.95459,-0.296143,-0.0258179,-0.0172119,-3.41027,-1.00858,34.4409,-0.0078125,0,0.507812,-0.0078125,0,-0.0078125,127,0
2017/01/16,15:55:16,16,300,0.954834,-0.295471,-0.0270996,-0.0161743,-3.51497,-0.853806,34.3629,-0.0546875,0.109375,0.53125,-0.0078125,0,-0.0078125,126,0
2017/01/16,15:55:16,16,350,0.954834,-0.295471,-0.0270996,-0.0161743,-3.51497,-0.853806,34.3629,0,0,0.539062,-0.0234375,0,0,126,0
2017/01/16,15:55:16,16,351,0.954651,-0.294434,-0.0396118,-0.0176392,-4.93457,-0.595413,34.256,-0.015625,-0.015625,0.546875,-0.0390625,0,0,126,0
2017/01/16,15:55:16,16,400,0.954651,-0.294434,-0.0396118,-0.0176392,-4.93457,-0.595413,34.256,-0.0078125,-0.0390625,0.5625,-0.046875,0,-0.0078125,126,0
2017/01/16,15:55:16,16,401,0.953003,-0.292603,-0.0750122,-0.022644,-8.98786,0.0428009,34.1397,-0.0234375,-0.046875,0.59375,-0.0625,0,-0.0078125,124,0
2017/01/16,15:55:16,16,433,0.953003,-0.292603,-0.0750122,-0.022644,-8.98786,0.0428009,34.1397,-0.0234375,-0.0859375,0.65625,-0.0703125,-0.0078125,-0.0078125,123,0
2017/01/16,15:55:16,16,469,0.948242,-0.289124,-0.125427,-0.038147,-15.0659,0.0108337,33.9149,-0.046875,-0.09375,0.757812,-0.09375,-0.0078125,-0.0078125,120,0
2017/01/16,15:55:16,16,483,0.948242,-0.289124,-0.125427,-0.038147,-15.0659,0.0108337,33.9149,-0.015625,-0.140625,0.867188,-0.125,-0.015625,-0.0078125,116,0
2017/01/16,15:55:16,16,500,0.934326,-0.28186,-0.206055,-0.0718384,-25.1849,-1.14499,33.3184,-0.046875,-0.195312,0.992188,-0.15625,-0.015625,-0.015625,110,0
2017/01/16,15:55:16,16,533,0.934326,-0.28186,-0.206055,-0.0718384,-25.1849,-1.14499,33.3184,-0.117188,-0.15625,0.992188,-0.1875,-0.03125,-0.015625,102,0
2017/01/16,15:55:16,16,566,0.898926,-0.266052,-0.325073,-0.124573,-40.5958,-3.85019,31.5496,-0.226562,0.078125,0.992188,-0.203125,-0.0234375,-0.015625,93,0
2017/01/16,15:55:16,16,567,0.898926,-0.266052,-0.325073,-0.124573,-40.5958,-3.85019,31.5496,-0.226562,0.65625,0.5625,-0.234375,-0.0078125,-0.03125,84,0
2017/01/16,15:55:16,16,617,0.84082,-0.232239,-0.457642,-0.172241,-58.1672,-8.40315,26.2012,-0.25,0.953125,0.734375,-0.179688,0,-0.03125,75,0.0883999
2017/01/16,15:55:16,16,667,0.84082,-0.232239,-0.457642,-0.172241,-58.1672,-8.40315,26.2012,0.046875,0.507812,0.421875,0.0546875,0.015625,-0.0078125,67,0
2017/01/16,15:55:16,16,668,0.860962,-0.221375,-0.430176,-0.157227,-54.1293,-7.87312,24.8124,-0.0078125,0.15625,0.265625,0.078125,-0.0234375,0.0078125,60,0
2017/01/16,15:55:16,16,687,0.860962,-0.221375,-0.430176,-0.157227,-54.1293,-7.87312,24.8124,-0.148438,0.171875,0.273438,0.0703125,-0.0234375,0.0078125,55,0
2017/01/16,15:55:16,16,720,0.887451,-0.249634,-0.358643,-0.146484,-45.2097,-6.59732,28.6724,-0.0859375,0.171875,0.328125,0.078125,0.0078125,0.015625,51,0
2017/01/16,15:55:16,16,721,0.887451,-0.249634,-0.358643,-0.146484,-45.2097,-6.59732,28.6724,-0.0390625,0.164062,0.40625,0.09375,0.0078125,0.015625,50,0
2017/01/16,15:55:16,16,750,0.915466,-0.27533,-0.27417,-0.104492,-34.023,-2.79019,32.6238,-0.101562,0.117188,0.476562,0.117188,0,0.0234375,50,0
2017/01/16,15:55:16,16,783,0.915466,-0.27533,-0.27417,-0.104492,-34.023,-2.79019,32.6238,-0.125,0.0390625,0.570312,0.132812,0.0078125,0.015625,52,0
2017/01/16,15:55:16,16,802,0.938477,-0.299927,-0.163086,-0.0512695,-19.6856,0.0971985,35.4635,-0.101562,-0.046875,0.6875,0.132812,0.0234375,0,55,0
2017/01/16,15:55:16,16,883,0.938477,-0.299927,-0.163086,-0.0512695,-19.6856,0.0971985,35.4635,-0.0859375,-0.117188,0.835938,0.132812,0.0234375,-0.015625,60,0
2017/01/16,15:55:16,16,884,0.953552,-0.296326,-0.0532837,0.00823975,-5.55115,2.72353,34.6584,-0.171875,-0.148438,0.992188,0.132812,0.0234375,-0.015625,66,0
2017/01/16,15:55:16,16,885,0.953552,-0.296326,-0.0532837,0.00823975,-5.55115,2.72353,34.6584,-0.179688,-0.195312,0.992188,0.148438,0.03125,-0.015625,73,0
2017/01/16,15:55:16,16,921,0.954956,-0.281982,0.0540161,0.074646,8.35255,6.5063,32.4263,-0.132812,-0.5625,0.992188,0.15625,0.0390625,0.015625,82,0
2017/01/16,15:55:16,16,933,0.954956,-0.281982,0.0540161,0.074646,8.35255,6.5063,32.4263,-0.0703125,-0.789062,0.976562,0.132812,0.046875,0.046875,92,0
2017/01/16,15:55:16,16,934,0.934326,-0.298767,0.138733,0.136047,19.9096,10.4992,33.6174,0.0625,-1,0.71875,0.101562,0.046875,0.0390625,102,0
2017/01/16,15:55:16,16,983,0.934326,-0.298767,0.138733,0.136047,19.9096,10.4992,33.6174,0.25,-1,0.484375,0.0546875,0.0390625,0.0078125,112,0
2017/01/16,15:55:17,17,3,0.920044,-0.315247,0.157349,0.171143,23.4182,13.5974,34.9962,0.390625,-1,0.296875,0.015625,0.015625,-0.03125,122,0
2017/01/16,15:55:17,17,16,0.920044,-0.315247,0.157349,0.171143,23.4182,13.5974,34.9962,0.21875,-0.976562,0.328125,-0.03125,-0.015625,-0.0390625,130,0
2017/01/16,15:55:17,17,67,0.9375,-0.291321,0.115417,0.151306,17.732,13.1353,32.4667,0.171875,-0.335938,0.710938,-0.0703125,-0.046875,-0.0234375,136,0.132588
2017/01/16,15:55:17,17,84,0.9375,-0.291321,0.115417,0.151306,17.732,13.1353,32.4667,0.015625,0.0078125,0.703125,-0.101562,-0.148438,0.015625,141,0
2017/01/16,15:55:17,17,104,0.95343,-0.29126,0.0620728,0.0473633,8.39253,3.13823,33.7441,0.171875,-0.0390625,0.859375,-0.15625,-0.046875,0.015625,142,0
2017/01/16,15:55:17,17,116,0.95343,-0.29126,0.0620728,0.0473633,8.39253,3.13823,33.7441,-0.132812,-0.109375,0.75,-0.09375,-0.0234375,-0.0078125,141,0
2017/01/16,15:55:17,17,187,0.95459,-0.296021,-0.0315552,-0.0119629,-3.86047,-0.238739,34.4495,0,0.0078125,0.492188,-0.0078125,0,0,139,0
2017/01/16,15:55:17,17,188,0.95459,-0.296021,-0.0315552,-0.0119629,-3.86047,-0.238739,34.4495,-0.0078125,0,0.5,-0.0078125,0,0,136,0
2017/01/16,15:55:17,17,200,0.954346,-0.296692,-0.03302,-0.0118408,-4.01693,-0.172699,34.5333,-0.0078125,0,0.5,-0.0078125,0,0,132,0
2017/01/16,15:55:17,17,233,0.954346,-0.296692,-0.03302,-0.0118408,-4.01693,-0.172699,34.5333,-0.0078125,0,0.492188,-0.0078125,0,0,129,0
2017/01/16,15:55:17,17,250,0.954285,-0.296814,-0.0332031,-0.0111694,-4.01404,-0.0923309,34.5516,-0.0078125,0,0.5,-0.0078125,0,0,126,0
2017/01/16,15:55:17,17,283,0.954285,-0.296814,-0.0332031,-0.0111694,-4.01404,-0.0923309,34.5516,-0.0078125,0,0.492188,-0.0078125,0,0,123,0
2017/01/16,15:55:17,17,320,0.954285,-0.296875,-0.032959,-0.010498,-3.96446,-0.0268097,34.5606,-0.0078125,0,0.492188,-0.0078125,0,0,120,0
2017/01/16,15:55:17,17,352,0.954285,-0.296875,-0.032959,-0.010498,-3.96446,-0.0268097,34.5606,-0.0078125,0,0.492188,-0.0078125,0,0,120,0
2017/01/16,15:55:17,17,353,0.954346,-0.296753,-0.0326538,-0.00982666,-3.90821,0.0358429,34.5473,-0.0078125,0,0.492188,-0.0078125,0,0,120,0
2017/01/16,15:55:17,17,385,0.954346,-0.296753,-0.0326538,-0.00982666,-3.90821,0.0358429,34.5473,-0.0078125,0,0.492188,-0.0078125,0,0,120,0
2017/01/16,15:55:17,17,399,0.954407,-0.296631,-0.0322266,-0.00927734,-3.84275,0.0809784,34.5333,-0.015625,0,0.492188,-0.0078125,0,0,120,0
2017/01/16,15:55:17,17,416,0.954407,-0.296631,-0.0322266,-0.00927734,-3.84275,0.0809784,34.5333,-0.0078125,0,0.492188,-0.0078125,0,0,120,0
2017/01/16,15:55:17,17,453,0.954468,-0.296509,-0.0317993,-0.00866699,-3.77523,0.132797,34.5196,-0.0078125,0,0.492188,-0.0078125,0,0,120,0
2017/01/16,15:55:17,17,466,0.954468,-0.296509,-0.0317993,-0.00866699,-3.77523,0.132797,34.5196,-0.0078125,0,0.492188,-0.0078125,0,0,120,0
2017/01/16,15:55:17,17,516,0.954529,-0.296387,-0.0315552,-0.00811768,-3.72987,0.184189,34.5057,-0.015625,0,0.5,-0.0078125,0,0,120,0
2017/01/16,15:55:17,17,535,0.954529,-0.296387,-0.0315552,-0.00811768,-3.72987,0.184189,34.5057,-0.015625,0,0.492188,-0.0078125,0,0,120,0
2017/01/16,15:55:17,17,549,0.95459,-0.296082,-0.0315552,-0.00750732,-3.70906,0.249939,34.4723,-0.015625,0,0.5,-0.0078125,0,0,120,0
2017/01/16,15:55:17,17,567,0.95459,-0.296082,-0.0315552,-0.00750732,-3.70906,0.249939,34.4723,-0.0234375,0,0.492188,-0.0078125,0,-0.0078125,120,0
2017/01/16,15:55:17,17,599,0.954834,-0.295288,-0.0321045,-0.00701904,-3.75293,0.319031,34.3795,-0.015625,-0.0078125,0.515625,-0.0078125,-0.0078125,-0.0078125,120,0
2017/01/16,15:55:17,17,617,0.954834,-0.295288,-0.0321045,-0.00701904,-3.75293,0.319031,34.3795,0,-0.0078125,0.539062,-0.015625,-0.0078125,-0.0078125,120,0
2017/01/16,15:55:17,17,666,0.955261,-0.293152,-0.0384521,-0.00946045,-4.53169,0.256912,34.1307,-0.015625,-0.0078125,0.554688,-0.03125,-0.0078125,-0.0078125,120,0
2017/01/16,15:55:17,17,686,0.955261,-0.293152,-0.0384521,-0.00946045,-4.53169,0.256912,34.1307,-0.015625,-0.03125,0.585938,-0.0390625,0,-0.0078125,120,0
2017/01/16,15:55:17,17,700,0.954224,-0.29126,-0.0651245,-0.0172729,-7.72095,0.287491,33.9672,-0.015625,-0.046875,0.585938,-0.0546875,0,-0.0078125,120,0
2017/01/16,15:55:17,17,750,0.954224,-0.29126,-0.0651245,-0.0172729,-7.72095,0.287491,33.9672,-0.0234375,-0.0703125,0.640625,-0.0625,-0.0078125,-0.0078125,119,0
2017/01/16,15:55:17,17,769,0.950989,-0.288025,-0.107849,-0.0310669,-12.8866,0.178574,33.72,-0.0234375,-0.101562,0.695312,-0.078125,-0.0078125,-0.0078125,118,0
2017/01/16,15:55:17,17,784,0.950989,-0.288025,-0.107849,-0.0310669,-12.8866,0.178574,33.72,-0.046875,-0.117188,0.8125,-0.109375,-0.015625,-0.0078125,116,0
2017/01/16,15:55:17,17,800,0.94104,-0.28241,-0.17627,-0.0593262,-21.4237,-0.744614,33.2685,-0.117188,-0.148438,0.9375,-0.140625,-0.015625,-0.015625,114,0
2017/01/16,15:55:17,17,833,0.94104,-0.28241,-0.17627,-0.0593262,-21.4237,-0.744614,33.2685,-0.0234375,-0.21875,0.992188,-0.179688,-0.0234375,-0.015625,110,0
2017/01/16,15:55:17,17,869,0.9151,-0.265076,-0.2854,-0.104553,-35.2938,-2.81218,31.4146,-0.15625,-0.078125,0.992188,-0.195312,-0.015625,-0.0234375,104,0
2017/01/16,15:55:17,17,883,0.9151,-0.265076,-0.2854,-0.104553,-35.2938,-2.81218,31.4146,-0.203125,0.046875,0.992188,-0.203125,-0.0078125,-0.0234375,97,0
2017/01/16,15:55:17,17,936,0.868225,-0.231689,-0.41394,-0.145386,-51.8277,-5.63152,27.1449,-0.359375,0.9375,0.234375,-0.21875,0.0078125,-0.0546875,88,0.0895408
2017/01/16,15:55:17,17,987,0.868225,-0.231689,-0.41394,-0.145386,-51.8277,-5.63152,27.1449,-0.265625,0.828125,0.46875,-0.117188,0.0234375,-0.0546875,78,0
2017/01/16,15:55:17,17,988,0.855469,-0.182068,-0.461548,-0.148315,-57.5315,-9.18513,18.9798,0.0625,0.226562,0.289062,0.078125,-0.0078125,-0.015625,69,0
2017/01/16,15:55:18,18,16,0.855469,-0.182068,-0.461548,-0.148315,-57.5315,-9.18513,18.9798,-0.132812,0.171875,0.234375,0.0625,-0.03125,0,60,0
2017/01/16,15:55:18,18,17,0.889709,-0.193481,-0.387024,-0.14563,-48.1618,-9.43709,20.3125,-0.164062,0.203125,0.320312,0.078125,0,0.0078125,53,0
2017/01/16,15:55:18,18,36,0.889709,-0.193481,-0.387024,-0.14563,-48.1618,-9.43709,20.3125,-0.046875,0.1875,0.382812,0.09375,0.015625,0.015625,47,0
2017/01/16,15:55:18,18,50,0.920654,-0.212585,-0.308716,-0.108765,-37.929,-5.01996,24.2781,-0.0546875,0.132812,0.453125,0.117188,0.0078125,0.0234375,43,0
2017/01/16,15:55:18,18,86,0.920654,-0.212585,-0.308716,-0.108765,-37.929,-5.01996,24.2781,-0.132812,0.03125,0.515625,0.132812,0.0078125,0.0234375,40,0
2017/01/16,15:55:18,18,99,0.948242,-0.240295,-0.198486,-0.0604248,-23.9203,-1.20384,28.1851,-0.125,-0.0703125,0.625,0.132812,0.0234375,0.0078125,41,0
2017/01/16,15:55:18,18,137,0.948242,-0.240295,-0.198486,-0.0604248,-23.9203,-1.20384,28.1851,-0.078125,-0.101562,0.757812,0.125,0.03125,-0.0078125,45,0
2017/01/16,15:55:18,18,168,0.966003,-0.241943,-0.0906982,-0.00134277,-10.1298,2.4043,28.335,-0.15625,-0.148438,0.953125,0.125,0.0234375,-0.0078125,61,0
2017/01/16,15:55:18,18,200,0.966003,-0.241943,-0.0906982,-0.00134277,-10.1298,2.4043,28.335,-0.234375,-0.21875,0.992188,0.140625,0.03125,-0.0078125,79,0
2017/01/16,15:55:18,18,219,0.970581,-0.233215,0.0166626,0.0570068,3.37866,5.91612,26.8476,-0.226562,-0.40625,0.992188,0.15625,0.046875,0.015625,98,0
2017/01/16,15:55:18,18,233,0.970581,-0.233215,0.0166626,0.0570068,3.37866,5.91612,26.8476,-0.21875,-0.640625,0.992188,0.148438,0.046875,0.046875,116,0
2017/01/16,15:55:18,18,250,0.953491,-0.249817,0.114746,0.123291,16.2852,10.6745,27.8315,-0.171875,-0.828125,0.90625,0.125,0.046875,0.0546875,135,0
2017/01/16,15:55:18,18,317,0.953491,-0.249817,0.114746,0.123291,16.2852,10.6745,27.8315,-0.015625,-1,0.679688,0.0859375,0.0625,0.015625,152,0
2017/01/16,15:55:18,18,318,0.932556,-0.272766,0.15155,0.181274,22.4297,16.0432,29.4062,0.351562,-1,0.460938,0.0390625,0.0625,-0.0390625,170,0
2017/01/16,15:55:18,18,334,0.932556,-0.272766,0.15155,0.181274,22.4297,16.0432,29.4062,0.515625,-1,0.296875,0.0078125,0.0234375,-0.046875,184,0
2017/01/16,15:55:18,18,367,0.941345,-0.240601,0.122192,0.202271,19.11,19.9284,25.2865,0.179688,-0.929688,0.375,-0.03125,-0.0234375,-0.0234375,188,0
2017/01/16,15:55:18,18,402,0.941345,-0.240601,0.122192,0.202271,19.11,19.9284,25.2865,-0.507812,-0.1875,0.734375,-0.0703125,-0.0390625,0.0078125,191,0.151698
2017/01/16,15:55:18,18,403,0.957764,-0.240723,0.059082,0.145691,10.5629,14.771,26.8437,0.0859375,0.078125,0.570312,-0.0859375,-0.164062,0.0625,193,0
2017/01/16,15:55:18,18,433,0.957764,-0.240723,0.059082,0.145691,10.5629,14.771,26.8437,0.21875,-0.171875,0.71875,-0.132812,-0.09375,0.03125,193,0
2017/01/16,15:55:18,18,470,0.958679,-0.284058,0.012146,0.00842285,1.6087,0.530182,33.0018,-0.03125,-0.0078125,0.945312,-0.101562,-0.0078125,0,193,0
2017/01/16,15:55:18,18,483,0.958679,-0.284058,0.012146,0.00842285,1.6087,0.530182,33.0018,-0.015625,-0.0078125,0.476562,-0.0234375,-0.0078125,-0.0078125,192,0
2017/01/16,15:55:18,18,520,0.957764,-0.284485,-0.0368652,-0.0174561,-4.62008,-0.716461,33.0571,-0.0078125,0,0.5,-0.0078125,0,0,192,0
2017/01/16,15:55:18,18,533,0.957764,-0.284485,-0.0368652,-0.0174561,-4.62008,-0.716461,33.0571,-0.0078125,0,0.492188,-0.0078125,0,0,190,0
2017/01/16,15:55:18,18,583,0.957764,-0.284607,-0.0369873,-0.0172729,-4.62778,-0.691727,33.0715,0,0,0.492188,-0.0078125,0,0,188,0
2017/01/16,15:55:18,18,584,0.957764,-0.284607,-0.0369873,-0.0172729,-4.62778,-0.691727,33.0715,0,0.0078125,0.5,-0.0078125,0,0,186,0
2017/01/16,15:55:18,18,621,0.957825,-0.284546,-0.0363159,-0.0166626,-4.53403,-0.646774,33.0651,-0.0078125,0.0078125,0.5,-0.0078125,0,0,184,0
2017/01/16,15:55:18,18,634,0.957825,-0.284546,-0.0363159,-0.0166626,-4.53403,-0.646774,33.0651,-0.0078125,0,0.492188,-0.0078125,0,0,183,0
2017/01/16,15:55:18,18,666,0.957886,-0.284485,-0.0358276,-0.0159912,-4.45845,-0.589096,33.0591,-0.0078125,0,0.492188,-0.0078125,0,0,182,0
2017/01/16,15:55:18,18,683,0.957886,-0.284485,-0.0358276,-0.0159912,-4.45845,-0.589096,33.0591,-0.0078125,0,0.492188,-0.0078125,0,0,182,0
2017/01/16,15:55:18,18,704,0.957947,-0.284363,-0.0354614,-0.0152588,-4.39422,-0.520996,33.0466,-0.0078125,0,0.492188,-0.0078125,0,0,182,0
2017/01/16,15:55:18,18,734,0.957947,-0.284363,-0.0354614,-0.0152588,-4.39422,-0.520996,33.0466,-0.0078125,0,0.492188,-0.0078125,0,0,182,0
2017/01/16,15:55:18,18,767,0.958008,-0.284119,-0.0350952,-0.0144043,-4.32582,-0.439972,33.0212,-0.0078125,0,0.492188,-0.0078125,0,0,182,0
2017/01/16,15:55:18,18,768,0.958008,-0.284119,-0.0350952,-0.0144043,-4.32582,-0.439972,33.0212,-0.0078125,0,0.492188,-0.0078125,0,0,182,0
2017/01/16,15:55:18,18,799,0.95813,-0.283875,-0.0348511,-0.0135498,-4.27115,-0.35498,32.9937,-0.0078125,0,0.5,-0.0078125,0,0,182,0
2017/01/16,15:55:18,18,853,0.95813,-0.283875,-0.0348511,-0.0135498,-4.27115,-0.35498,32.9937,-0.0078125,0,0.492188,-0.0078125,0,0,182,0
2017/01/16,15:55:18,18,854,0.958191,-0.283691,-0.034668,-0.0126343,-4.2211,-0.260956,32.9752,-0.0078125,0,0.492188,-0.0078125,0,0,182,0
2017/01/16,15:55:18,18,885,0.958191,-0.283691,-0.034668,-0.0126343,-4.2211,-0.260956,32.9752,-0.0078125,0,0.492188,-0.0078125,0,-0.0078125,183,0
2017/01/16,15:55:18,18,917,0.958374,-0.282959,-0.0349121,-0.0115356,-4.21194,-0.135239,32.8934,-0.0078125,0,0.5,-0.0078125,0,-0.0078125,183,0
2017/01/16,15:55:18,18,918,0.958374,-0.282959,-0.0349121,-0.0115356,-4.21194,-0.135239,32.8934,-0.0078125,0,0.53125,-0.015625,0,-0.0078125,183,0
2017/01/16,15:55:18,18,967,0.958618,-0.28186,-0.0385742,-0.0114746,-4.61296,-0.0146179,32.769,-0.0234375,-0.015625,0.546875,-0.0234375,0,0,183,0
2017/01/16,15:55:18,18,985,0.958618,-0.28186,-0.0385742,-0.0114746,-4.61296,-0.0146179,32.769,-0.0078125,-0.0234375,0.570312,-0.0390625,0,0,184,0
2017/01/16,15:55:18,18,999,0.957825,-0.280762,-0.0592041,-0.013916,-6.96301,0.380188,32.6974,-0.015625,-0.0390625,0.5625,-0.046875,0,-0.0078125,184,0
2017/01/16,15:55:19,19,36,0.957825,-0.280762,-0.0592041,-0.013916,-6.96301,0.380188,32.6974,-0.0234375,-0.0546875,0.601562,-0.0546875,0,-0.0078125,185,0
2017/01/16,15:55:19,19,151,0.955261,-0.278931,-0.0963745,-0.019104,-11.232,1.00859,32.6542,-0.03125,-0.09375,0.585938,-0.0625,0,-0.0078125,185,0
2017/01/16,15:55:19,19,152,0.949097,-0.275635,-0.148254,-0.034668,-17.4893,0.956558,32.5356,-0.0390625,-0.117188,0.695312,-0.078125,-0.0078125,-0.0078125,187,0
2017/01/16,15:55:19,19,153,0.949097,-0.275635,-0.148254,-0.034668,-17.4893,0.956558,32.5356,-0.046875,-0.132812,0.78125,-0.109375,-0.0078125,-0.0078125,188,0
2017/01/16,15:55:19,19,154,0.9328,-0.268372,-0.230896,-0.0670776,-27.8244,-0.0782776,32.0822,-0.046875,-0.171875,0.992188,-0.140625,-0.015625,-0.0078125,191,0
2017/01/16,15:55:19,19,152,0.9328,-0.268372,-0.230896,-0.0670776,-27.8244,-0.0782776,32.0822,0.0078125,-0.195312,0.992188,-0.179688,-0.015625,-0.015625,195,0
2017/01/16,15:55:19,19,184,0.892273,-0.25293,-0.356079,-0.11438,-43.8919,-1.90771,30.8838,-0.132812,-0.078125,0.992188,-0.195312,-0.015625,-0.0078125,207,0
2017/01/16,15:55:19,19,220,0.892273,-0.25293,-0.356079,-0.11438,-43.8919,-1.90771,30.8838,-0.210938,0.328125,0.898438,-0.210938,0.0078125,-0.015625,225,0
2017/01/16,15:55:19,19,234,0.833313,-0.214111,-0.489563,-0.141602,-61.2296,-3.13925,26.9617,-0.148438,0.914062,0.367188,-0.21875,0.0234375,-0.0390625,245,0.0810804
2017/01/16,15:55:19,19,270,0.833313,-0.214111,-0.489563,-0.141602,-61.2296,-3.13925,26.9617,-0.0859375,0.859375,0.484375,-0.109375,0.0234375,-0.0390625,265,0
2017/01/16,15:55:19,19,283,0.862549,-0.200378,-0.445374,-0.132263,-55.217,-4.99614,23.5427,0.078125,0.234375,0.328125,0.0859375,-0.015625,-0.0078125,284,0
2017/01/16,15:55:19,19,320,0.862549,-0.200378,-0.445374,-0.132263,-55.217,-4.99614,23.5427,-0.046875,0.164062,0.242188,0.0703125,-0.0390625,0,303,0
2017/01/16,15:55:19,19,351,0.891907,-0.222107,-0.370178,-0.134521,-46.0615,-6.24904,25.3084,-0.109375,0.203125,0.3125,0.078125,-0.0234375,0,321,0
2017/01/16,15:55:19,19,366,0.891907,-0.222107,-0.370178,-0.134521,-46.0615,-6.24904,25.3084,-0.09375,0.179688,0.40625,0.09375,-0.0078125,0.0078125,337,0
2017/01/16,15:55:19,19,384,0.923889,-0.250183,-0.270752,-0.102539,-33.4766,-3.71161,29.1873,-0.117188,0.117188,0.484375,0.125,-0.0078125,0.0234375,347,0
2017/01/16,15:55:19,19,416,0.923889,-0.250183,-0.270752,-0.102539,-33.4766,-3.71161,29.1873,-0.195312,0.0234375,0.5625,0.140625,-0.0078125,0.0234375,348,0
2017/01/16,15:55:19,19,453,0.946777,-0.280457,-0.148438,-0.0541382,-18.1461,-1.16092,32.8155,-0.203125,-0.09375,0.625,0.140625,0.0078125,0.015625,356,0
2017/01/16,15:55:19,19,454,0.946777,-0.280457,-0.148438,-0.0541382,-18.1461,-1.16092,32.8155,-0.179688,-0.148438,0.757812,0.132812,0.0234375,0,9,0
2017/01/16,15:55:19,19,483,0.957642,-0.284302,-0.0444946,0.00585938,-4.69711,2.10027,33.156,-0.226562,-0.125,0.976562,0.125,0.0234375,-0.0078125,16,0
2017/01/16,15:55:19,19,533,0.957642,-0.284302,-0.0444946,0.00585938,-4.69711,2.10027,33.156,-0.21875,-0.234375,0.992188,0.148438,0.03125,-0.015625,21,0
2017/01/16,15:55:19,19,567,0.956787,-0.272766,0.0631714,0.078125,9.41027,6.69666,31.2723,-0.15625,-0.507812,0.992188,0.164062,0.0390625,0,25,0
2017/01/16,15:55:19,19,568,0.956787,-0.272766,0.0631714,0.078125,9.41027,6.69666,31.2723,-0.0859375,-0.789062,0.992188,0.148438,0.0390625,0.0234375,28,0
2017/01/16,15:55:19,19,584,0.939026,-0.283691,0.139587,0.134766,19.7926,10.6516,31.7567,-0.0703125,-1,0.8125,0.117188,0.0390625,0.03125,31,0
2017/01/16,15:55:19,19,616,0.939026,-0.283691,0.139587,0.134766,19.7926,10.6516,31.7567,0.109375,-1,0.546875,0.0703125,0.0546875,0,54,0
2017/01/16,15:55:19,19,634,0.932617,-0.28064,0.145081,0.174377,21.6221,15.2056,30.5746,0.507812,-1,0.359375,0.0234375,0.0390625,-0.03125,71,0
2017/01/16,15:55:19,19,667,0.932617,-0.28064,0.145081,0.174377,21.6221,15.2056,30.5746,0.382812,-1,0.359375,-0.015625,-0.015625,-0.03125,220,0
2017/01/16,15:55:19,19,699,0.950562,-0.263367,0.0949707,0.134033,14.5456,12.2156,29.4074,0.015625,-0.28125,0.0390625,-0.078125,-0.0703125,-0.0078125,240,0.154355
2017/01/16,15:55:19,19,700,0.950562,-0.263367,0.0949707,0.134033,14.5456,12.2156,29.4074,0.148438,0.164062,0.757812,-0.09375,-0.148438,0.015625,263,0
2017/01/16,15:55:19,19,735,0.959717,-0.278015,0.0360107,0.0187378,4.56207,0.916397,32.2745,0.210938,0.0234375,0.78125,-0.132812,-0.0390625,0.0234375,149,0
2017/01/16,15:55:19,19,767,0.959717,-0.278015,0.0360107,0.0187378,4.56207,0.916397,32.2745,-0.03125,-0.03125,0.84375,-0.101562,-0.0234375,-0.0078125,166,0
2017/01/16,15:55:19,19,799,0.958984,-0.280701,-0.0296021,-0.0244751,-4.04363,-1.74217,32.5686,0.0078125,-0.0234375,0.484375,-0.0234375,-0.015625,-0.0078125,172,0
2017/01/16,15:55:19,19,817,0.958984,-0.280701,-0.0296021,-0.0244751,-4.04363,-1.74217,32.5686,0,0,0.5,-0.0078125,-0.0078125,0,157,0
2017/01/16,15:55:19,19,850,0.958862,-0.280823,-0.0321045,-0.026062,-4.37047,-1.83618,32.5775,0.0078125,0,0.5,-0.0078125,-0.0078125,0,139,0
2017/01/16,15:55:19,19,887,0.958862,-0.280823,-0.0321045,-0.026062,-4.37047,-1.83618,32.5775,0.0078125,0,0.5,-0.0078125,0,0,118,0
2017/01/16,15:55:19,19,888,0.958862,-0.280823,-0.0321045,-0.026062,-4.37047,-1.83618,32.5775,0.0078125,0,0.5,-0.0078125,0,0,98,0
2017/01/16,15:55:19,19,936,0.958862,-0.280884,-0.0317383,-0.0258789,-4.32439,-1.82748,32.5852,0.0078125,0,0.5,-0.0078125,0,0,77,0
2017/01/16,15:55:19,19,950,0.958862,-0.280884,-0.0313721,-0.0253906,-4.26828,-1.78543,32.5877,0.0078125,0,0.5,-0.0078125,0,0,59,0
2017/01/16,15:55:19,19,967,0.958862,-0.280884,-0.0313721,-0.0253906,-4.26828,-1.78543,32.5877,0.0078125,0,0.492188,-0.0078125,0,0,46,0
2017/01/16,15:55:20,20,0,0.958923,-0.280762,-0.0311279,-0.0249023,-4.22549,-1.73999,32.5746,0.0078125,0,0.492188,-0.0078125,0,0,43,0
2017/01/16,15:55:20,20,36,0.958923,-0.280762,-0.0311279,-0.0249023,-4.22549,-1.73999,32.5746,0.0078125,0,0.492188,-0.0078125,0,0,42,0
2017/01/16,15:55:20,20,37,0.958984,-0.280579,-0.0309448,-0.024292,-4.18533,-1.6794,32.5554,0.0078125,0,0.5,-0.0078125,0,0,43,0
2017/01/16,15:55:20,20,67,0.958984,-0.280579,-0.0309448,-0.024292,-4.18533,-1.6794,32.5554,0,0,0.492188,-0.0078125,0,0,43,0
2017/01/16,15:55:20,20,100,0.959045,-0.280396,-0.0306396,-0.0238037,-4.13568,-1.63617,32.5355,0.0078125,0,0.492188,-0.0078125,0,0,43,0
2017/01/16,15:55:20,20,117,0.959045,-0.280396,-0.0306396,-0.0238037,-4.13568,-1.63617,32.5355,0.0078125,0,0.492188,-0.0078125,0,0,43,0
2017/01/16,15:55:20,20,150,0.959167,-0.280212,-0.0303345,-0.0234375,-4.09019,-1.60635,32.5132,0.0078125,0,0.492188,-0.0078125,0,0,43,0
2017/01/16,15:55:20,20,168,0.959167,-0.280212,-0.0303345,-0.0234375,-4.09019,-1.60635,32.5132,0.0078125,0,0.492188,-0.0078125,0,0,43,0
2017/01/16,15:55:20,20,187,0.959229,-0.280029,-0.0300903,-0.0228882,-4.04533,-1.55441,32.4935,0,0,0.492188,-0.0078125,0,0,43,0
2017/01/16,15:55:20,20,217,0.959229,-0.280029,-0.0300903,-0.0228882,-4.04533,-1.55441,32.4935,0,0,0.5,-0.0078125,0,0,43,0
2017/01/16,15:55:20,20,250,0.959412,-0.279541,-0.0299683,-0.0220337,-4.00379,-1.46616,32.4375,0,0,0.5,-0.0078125,0,-0.0078125,42,0
2017/01/16,15:55:20,20,351,0.959412,-0.279541,-0.0299683,-0.0220337,-4.00379,-1.46616,32.4375,0.0078125,0,0.59375,-0.0078125,0,-0.0078125,42,0
2017/01/16,15:55:20,20,352,0.959778,-0.277466,-0.0353394,-0.022583,-4.60971,-1.36476,32.1936,-0.0078125,-0.0390625,0.59375,-0.03125,0,-0.0078125,41,0
2017/01/16,15:55:20,20,353,0.959778,-0.277466,-0.0353394,-0.022583,-4.60971,-1.36476,32.1936,0,-0.0234375,0.578125,-0.046875,0.0078125,-0.0078125,40,0
2017/01/16,15:55:20,20,354,0.958557,-0.27478,-0.0704346,-0.0257568,-8.57976,-0.618347,31.9446,-0.0078125,-0.046875,0.59375,-0.0546875,0,-0.0078125,38,0
2017/01/16,15:55:20,20,366,0.958557,-0.27478,-0.0704346,-0.0257568,-8.57976,-0.618347,31.9446,-0.0078125,-0.0625,0.664062,-0.0703125,-0.0078125,-0.0078125,36,0
2017/01/16,15:55:20,20,400,0.953796,-0.270874,-0.123108,-0.0413208,-14.9055,-0.719223,31.6145,-0.0234375,-0.125,0.734375,-0.09375,-0.015625,-0.0078125,32,0
2017/01/16,15:55:20,20,434,0.953796,-0.270874,-0.123108,-0.0413208,-14.9055,-0.719223,31.6145,-0.0546875,-0.125,0.851562,-0.117188,-0.015625,-0.0078125,28,0
2017/01/16,15:55:20,20,435,0.939453,-0.261902,-0.207397,-0.076416,-25.449,-2.21773,30.6541,-0.0703125,-0.125,0.992188,-0.15625,-0.015625,-0.015625,24,0
2017/01/16,15:55:20,20,470,0.939453,-0.261902,-0.207397,-0.076416,-25.449,-2.21773,30.6541,-0.140625,-0.164062,0.992188,-0.1875,-0.03125,-0.015625,20,0
2017/01/16,15:55:20,20,483,0.903503,-0.239441,-0.332275,-0.126038,-41.3595,-5.24678,27.7041,-0.195312,-0.0078125,0.992188,-0.203125,-0.0234375,-0.0234375,18,0
2017/01/16,15:55:20,20,551,0.903503,-0.239441,-0.332275,-0.126038,-41.3595,-5.24678,27.7041,-0.210938,0.523438,0.726562,-0.226562,-0.0078125,-0.0390625,15,0
2017/01/16,15:55:20,20,552,0.845947,-0.194946,-0.466003,-0.170715,-58.7586,-11.9249,19.2231,-0.179688,0.820312,0.265625,-0.226562,-0.0078125,-0.046875,13,0.0824226
2017/01/16,15:55:20,20,566,0.845947,-0.194946,-0.466003,-0.170715,-58.7586,-11.9249,19.2231,-0.03125,0.5625,0.5,0.046875,0,-0.015625,11,0
2017/01/16,15:55:20,20,603,0.86853,-0.187561,-0.428223,-0.164734,-53.6725,-12.2312,18.1667,-0.015625,0.164062,0.273438,0.078125,-0.015625,0,11,0
2017/01/16,15:55:20,20,616,0.86853,-0.187561,-0.428223,-0.164734,-53.6725,-12.2312,18.1667,-0.117188,0.171875,0.257812,0.0625,-0.015625,0.0078125,11,0
2017/01/16,15:55:20,20,653,0.895813,-0.211914,-0.360718,-0.149902,-45.219,-9.45322,22.6742,-0.0859375,0.203125,0.3125,0.078125,0,0.015625,12,0
2017/01/16,15:55:20,20,684,0.895813,-0.211914,-0.360718,-0.149902,-45.219,-9.45322,22.6742,-0.078125,0.195312,0.398438,0.101562,0.0078125,0.03125,13,0
2017/01/16,15:55:20,20,699,0.924072,-0.246338,-0.271912,-0.10675,-33.7193,-4.3669,28.5293,-0.125,0.132812,0.476562,0.125,0,0.03125,14,0
2017/01/16,15:55:20,20,717,0.924072,-0.246338,-0.271912,-0.10675,-33.7193,-4.3669,28.5293,-0.148438,-0.015625,0.539062,0.140625,0.0078125,0.03125,16,0
2017/01/16,15:55:20,20,750,0.94574,-0.280823,-0.154846,-0.0518799,-18.7855,-0.675522,32.9642,-0.164062,-0.101562,0.648438,0.132812,0.015625,0.0078125,18,0
2017/01/16,15:55:20,20,786,0.94574,-0.280823,-0.154846,-0.0518799,-18.7855,-0.675522,32.9642,-0.148438,-0.109375,0.820312,0.132812,0.0234375,-0.0078125,20,0
2017/01/16,15:55:20,20,787,0.958191,-0.281799,-0.0480957,0.00750732,-5.04503,2.38756,32.8819,-0.226562,-0.15625,0.992188,0.140625,0.0234375,-0.015625,24,0
2017/01/16,15:55:20,20,817,0.958191,-0.281799,-0.0480957,0.00750732,-5.04503,2.38756,32.8819,-0.265625,-0.257812,0.992188,0.15625,0.03125,-0.0078125,28,0
2017/01/16,15:55:20,20,850,0.957092,-0.271667,0.0626831,0.0786743,9.3656,6.78362,31.1365,-0.21875,-0.515625,0.992188,0.15625,0.046875,0.0078125,35,0
2017/01/16,15:55:20,20,868,0.957092,-0.271667,0.0626831,0.0786743,9.3656,6.78362,31.1365,-0.125,-0.773438,0.992188,0.140625,0.0546875,0.03125,47,0
2017/01/16,15:55:20,20,900,0.937195,-0.284424,0.138306,0.147095,20.0545,12.1081,31.6157,0,-1,0.804688,0.109375,0.0546875,0.0234375,63,0
2017/01/16,15:55:20,20,936,0.937195,-0.284424,0.138306,0.147095,20.0545,12.1081,31.6157,0.382812,-1,0.5625,0.0625,0.0625,-0.0234375,81,0
2017/01/16,15:55:20,20,937,0.932556,-0.273987,0.142151,0.186951,21.5659,16.9304,29.4982,0.65625,-1,0.328125,0.0234375,0.0234375,-0.0390625,100,0
2017/01/16,15:55:20,20,967,0.932556,-0.273987,0.142151,0.186951,21.5659,16.9304,29.4982,0.335938,-1,0.351562,-0.0234375,-0.03125,-0.03125,119,0
2017/01/16,15:55:21,21,0,0.951904,-0.250854,0.0977783,0.146179,15.0398,13.7318,27.7056,-0.453125,-0.210938,0.71875,-0.0625,-0.0390625,-0.015625,137,0.168314
2017/01/16,15:55:21,21,36,0.951904,-0.250854,0.0977783,0.146179,15.0398,13.7318,27.7056,-0.0078125,0.101562,0.84375,-0.09375,-0.15625,0.03125,154,0
2017/01/16,15:55:21,21,49,0.961609,-0.269531,0.0445557,0.0254517,5.70521,1.43573,31.244,0.304688,-0.015625,0.835938,-0.148438,-0.0546875,0.0234375,168,0
2017/01/16,15:55:21,21,87,0.961609,-0.269531,0.0445557,0.0254517,5.70521,1.43573,31.244,-0.078125,-0.0703125,0.96875,-0.09375,-0.03125,-0.0078125,176,0
2017/01/16,15:55:21,21,100,0.960388,-0.276733,-0.0276489,-0.017395,-3.59681,-1.03969,32.1158,0.0078125,0.0078125,0.5,-0.015625,-0.0078125,0,180,0
2017/01/16,15:55:21,21,117,0.960388,-0.276733,-0.0276489,-0.017395,-3.59681,-1.03969,32.1158,-0.0078125,0,0.5,-0.0078125,0,0,180,0
2017/01/16,15:55:21,21,150,0.960144,-0.277222,-0.029541,-0.0178833,-3.82117,-1.0316,32.1755,0,0,0.5,-0.0078125,0,0,179,0
2017/01/16,15:55:21,21,187,0.960144,-0.277222,-0.029541,-0.0178833,-3.82117,-1.0316,32.1755,-0.0078125,0,0.492188,-0.0078125,0,0,178,0
2017/01/16,15:55:21,21,200,0.960205,-0.277222,-0.0291748,-0.0171509,-3.75767,-0.962448,32.1764,0,0.0078125,0.492188,-0.0078125,0,0,175,0
2017/01/16,15:55:21,21,233,0.960205,-0.277222,-0.0291748,-0.0171509,-3.75767,-0.962448,32.1764,-0.0078125,0.0078125,0.492188,-0.0078125,0,0,173,0
2017/01/16,15:55:21,21,250,0.960205,-0.277161,-0.0287476,-0.0164185,-3.68713,-0.895493,32.1725,-0.0078125,0.0078125,0.5,-0.0078125,0,0,171,0
2017/01/16,15:55:21,21,267,0.960205,-0.277161,-0.0287476,-0.0164185,-3.68713,-0.895493,32.1725,-0.0078125,0,0.492188,-0.0078125,0,0,170,0
2017/01/16,15:55:21,21,300,0.960327,-0.277039,-0.0283203,-0.0157471,-3.61884,-0.83551,32.1576,-0.0078125,0.0078125,0.492188,-0.0078125,0,0,170,0
2017/01/16,15:55:21,21,336,0.960327,-0.277039,-0.0283203,-0.0157471,-3.61884,-0.83551,32.1576,-0.0078125,0,0.492188,-0.0078125,0,0,170,0
2017/01/16,15:55:21,21,350,0.960388,-0.276855,-0.0280151,-0.0149536,-3.55983,-0.758377,32.1383,-0.0078125,0.0078125,0.492188,-0.0078125,0,0,171,0
2017/01/16,15:55:21,21,451,0.960388,-0.276855,-0.0280151,-0.0149536,-3.55983,-0.758377,32.1383,-0.0078125,0,0.5,-0.0078125,0,0,170,0
2017/01/16,15:55:21,21,452,0.960449,-0.276672,-0.027832,-0.0139771,-3.5085,-0.657166,32.1196,-0.0078125,0,0.492188,-0.0078125,0,0,170,0
2017/01/16,15:55:21,21,453,0.960449,-0.276672,-0.027832,-0.0139771,-3.5085,-0.657166,32.1196,-0.0078125,0,0.5,-0.0078125,0,0,171,0
2017/01/16,15:55:21,21,451,0.96051,-0.276489,-0.027832,-0.0128174,-3.47159,-0.529953,32.1016,-0.0078125,0,0.5,-0.0078125,0,0,171,0
2017/01/16,15:55:21,21,500,0.96051,-0.276489,-0.027832,-0.0128174,-3.47159,-0.529953,32.1016,-0.0078125,0,0.5,-0.0078125,0,0,171,0
2017/01/16,15:55:21,21,568,0.960571,-0.276184,-0.0283813,-0.0115967,-3.49321,-0.378998,32.0705,-0.0078125,0.0078125,0.5,-0.0078125,0,0,171,0
2017/01/16,15:55:21,21,569,0.960571,-0.276184,-0.0283813,-0.0115967,-3.49321,-0.378998,32.0705,-0.015625,0,0.5,-0.0078125,-0.0078125,-0.0078125,171,0
2017/01/16,15:55:21,21,570,0.960938,-0.274719,-0.0299683,-0.0117188,-3.67139,-0.347748,31.8979,-0.0078125,-0.0078125,0.523438,-0.015625,-0.0078125,-0.0078125,171,0
2017/01/16,15:55:21,21,568,0.960938,-0.274719,-0.0299683,-0.0117188,-3.67139,-0.347748,31.8979,-0.03125,-0.0234375,0.570312,-0.03125,-0.0078125,-0.0078125,171,0
2017/01/16,15:55:21,21,600,0.960876,-0.272766,-0.0450439,-0.0170288,-5.50042,-0.469254,31.673,-0.0078125,-0.0234375,0.578125,-0.0390625,0,-0.0078125,171,0
2017/01/16,15:55:21,21,637,0.960876,-0.272766,-0.0450439,-0.0170288,-5.50042,-0.469254,31.673,-0.015625,-0.0390625,0.578125,-0.046875,0,-0.0078125,171,0
2017/01/16,15:55:21,21,650,0.959106,-0.270386,-0.079834,-0.0247803,-9.58665,-0.253464,31.4665,-0.015625,-0.0625,0.609375,-0.0625,-0.0078125,-0.0078125,170,0
2017/01/16,15:55:21,21,686,0.959106,-0.270386,-0.079834,-0.0247803,-9.58665,-0.253464,31.4665,-0.015625,-0.0859375,0.6875,-0.078125,-0.0078125,-0.0078125,170,0
2017/01/16,15:55:21,21,700,0.953613,-0.266541,-0.133362,-0.0422974,-16.0752,-0.571121,31.1513,-0.03125,-0.132812,0.8125,-0.101562,-0.015625,-0.0078125,169,0
2017/01/16,15:55:21,21,718,0.953613,-0.266541,-0.133362,-0.0422974,-16.0752,-0.571121,31.1513,-0.0625,-0.140625,0.929688,-0.132812,-0.015625,-0.0078125,163,0
2017/01/16,15:55:21,21,750,0.937256,-0.257935,-0.221313,-0.0776367,-27.0588,-2.01823,30.2883,-0.0078125,-0.171875,0.992188,-0.171875,-0.0234375,-0.015625,149,0
2017/01/16,15:55:21,21,785,0.937256,-0.257935,-0.221313,-0.0776367,-27.0588,-2.01823,30.2883,-0.132812,-0.148438,0.992188,-0.195312,-0.03125,-0.015625,131,0
2017/01/16,15:55:21,21,800,0.897217,-0.23822,-0.347412,-0.132446,-43.3545,-5.69443,27.474,-0.289062,0.1875,0.992188,-0.210938,-0.0234375,-0.0234375,112,0
2017/01/16,15:55:21,21,836,0.897217,-0.23822,-0.347412,-0.132446,-43.3545,-5.69443,27.474,-0.289062,0.875,0.421875,-0.242188,-0.0078125,-0.0390625,93,0.0777832
2017/01/16,15:55:21,21,849,0.84021,-0.195068,-0.475769,-0.172119,-60.0707,-11.9871,19.1935,-0.273438,0.867188,0.601562,-0.164062,0,-0.0390625,74,0
2017/01/16,15:55:21,21,868,0.84021,-0.195068,-0.475769,-0.172119,-60.0707,-11.9871,19.1935,0.03125,0.359375,0.3125,0.0703125,0,-0.015625,55,0
2017/01/16,15:55:21,21,900,0.872803,-0.186157,-0.422546,-0.158203,-52.7972,-11.3347,18.44,-0.0625,0.171875,0.21875,0.0703125,-0.0234375,0,37,0
2017/01/16,15:55:21,21,950,0.872803,-0.186157,-0.422546,-0.158203,-52.7972,-11.3347,18.44,-0.132812,0.1875,0.296875,0.0703125,-0.0078125,0.0078125,24,0
2017/01/16,15:55:21,21,951,0.901428,-0.206604,-0.351318,-0.145813,-43.918,-9.40611,22.0181,-0.0859375,0.179688,0.351562,0.09375,0.0078125,0.015625,21,0
2017/01/16,15:55:21,21,986,0.901428,-0.206604,-0.351318,-0.145813,-43.918,-9.40611,22.0181,-0.117188,0.140625,0.429688,0.109375,0.0078125,0.0234375,23,0
2017/01/16,15:55:22,22,0,0.931458,-0.238159,-0.255127,-0.102417,-31.6052,-4.66595,27.3634,-0.15625,0.03125,0.484375,0.132812,0.0078125,0.0234375,31,0
2017/01/16,15:55:22,22,17,0.931458,-0.238159,-0.255127,-0.102417,-31.6052,-4.66595,27.3634,-0.148438,-0.09375,0.570312,0.125,0.0234375,0.015625,45,0
2017/01/16,15:55:22,22,50,0.952942,-0.262207,-0.145325,-0.0444336,-17.474,-0.509109,30.6908,-0.09375,-0.101562,0.710938,0.125,0.03125,0,59,0
2017/01/16,15:55:22,22,86,0.952942,-0.262207,-0.145325,-0.0444336,-17.474,-0.509109,30.6908,-0.140625,-0.09375,0.90625,0.125,0.0234375,-0.0078125,70,0
2017/01/16,15:55:22,22,100,0.965271,-0.257385,-0.0415039,0.0148926,-4.15522,2.88039,29.9651,-0.210938,-0.148438,0.992188,0.148438,0.03125,-0.015625,80,0
2017/01/16,15:55:22,22,136,0.965271,-0.257385,-0.0415039,0.0148926,-4.15522,2.88039,29.9651,-0.1875,-0.289062,0.992188,0.164062,0.046875,0,86,0
2017/01/16,15:55:22,22,150,0.960999,-0.251404,0.0727539,0.0888062,10.6311,7.84305,28.5899,-0.171875,-0.476562,0.992188,0.148438,0.046875,0.0234375,91,0
2017/01/16,15:55:22,22,168,0.960999,-0.251404,0.0727539,0.0888062,10.6311,7.84305,28.5899,-0.148438,-0.757812,0.992188,0.132812,0.046875,0.0390625,94,0
2017/01/16,15:55:22,22,200,0.939087,-0.269531,0.14917,0.152283,21.2389,12.7437,29.6294,-0.0625,-1,0.742188,0.09375,0.0546875,0.0078125,91,0
2017/01/16,15:55:22,22,233,0.939087,-0.269531,0.14917,0.152283,21.2389,12.7437,29.6294,0.351562,-1,0.515625,0.046875,0.0703125,-0.0390625,84,0
2017/01/16,15:55:22,22,234,0.934326,-0.25238,0.145203,0.205444,22.0264,19.5778,26.3855,0.65625,-1,0.289062,0.015625,0.03125,-0.046875,79,0
2017/01/16,15:55:22,22,269,0.934326,-0.25238,0.145203,0.205444,22.0264,19.5778,26.3855,0.203125,-0.96875,0.359375,-0.03125,-0.03125,-0.03125,76,0
2017/01/16,15:55:22,22,300,0.953064,-0.226685,0.0969238,0.175476,15.3256,17.5346,24.3805,-0.804688,-0.125,0.492188,-0.0859375,-0.0859375,0.015625,75,0.184424
2017/01/16,15:55:22,22,320,0.953064,-0.226685,0.0969238,0.175476,15.3256,17.5346,24.3805,0.09375,0.320312,0.992188,-0.101562,-0.195312,0.046875,75,0
2017/01/16,15:55:22,22,351,0.964355,-0.260315,0.0371094,0.0292358,4.97921,2.13239,30.1197,0.367188,-0.0859375,0.992188,-0.148438,-0.0390625,0.03125,75,0
2017/01/16,15:55:22,22,383,0.964355,-0.260315,0.0371094,0.0292358,4.97921,2.13239,30.1197,-0.078125,-0.0625,0.726562,-0.078125,-0.0390625,-0.0078125,74,0
2017/01/16,15:55:22,22,384,0.962585,-0.267883,-0.0355835,-0.0197754,-4.5368,-1.0925,31.06,0.0078125,0,0.492188,-0.0078125,-0.0078125,0,73,0
2017/01/16,15:55:22,22,420,0.962585,-0.267883,-0.0355835,-0.0197754,-4.5368,-1.0925,31.06,0,0,0.5,-0.0078125,-0.0078125,0,70,0
2017/01/16,15:55:22,22,450,0.962463,-0.268005,-0.0368042,-0.020813,-4.70361,-1.16924,31.0725,0.0078125,0,0.5,-0.0078125,-0.0078125,0,68,0
2017/01/16,15:55:22,22,470,0.962463,-0.268005,-0.0368042,-0.020813,-4.70361,-1.16924,31.0725,0,0,0.5,-0.0078125,0,0,64,0
2017/01/16,15:55:22,22,501,0.962463,-0.268066,-0.0361938,-0.020752,-4.63434,-1.18095,31.0795,0,0,0.5,-0.0078125,0,0,61,0
2017/01/16,15:55:22,22,533,0.962463,-0.268066,-0.0361938,-0.020752,-4.63434,-1.18095,31.0795,0,0,0.492188,-0.0078125,0,0,59,0
2017/01/16,15:55:22,22,552,0.962463,-0.268188,-0.0352173,-0.0203247,-4.51341,-1.1631,31.0949,0,0,0.492188,-0.0078125,0,0,58,0
2017/01/16,15:55:22,22,567,0.962463,-0.268188,-0.0352173,-0.0203247,-4.51341,-1.1631,31.0949,0,0,0.492188,-0.0078125,0,0,57,0
2017/01/16,15:55:22,22,603,0.962524,-0.26825,-0.0344849,-0.0199585,-4.42148,-1.14482,31.1014,0,0,0.492188,-0.0078125,0,0,57,0
2017/01/16,15:55:22,22,617,0.962524,-0.26825,-0.0344849,-0.0199585,-4.42148,-1.14482,31.1014,0,0,0.492188,-0.0078125,0,0,57,0
2017/01/16,15:55:22,22,650,0.962585,-0.268127,-0.0336914,-0.0197144,-4.32614,-1.14276,31.0871,0,0,0.492188,-0.0078125,0,0,58,0
2017/01/16,15:55:22,22,686,0.962585,-0.268127,-0.0336914,-0.0197144,-4.32614,-1.14276,31.0871,0,0,0.492188,-0.0078125,0,0,57,0
2017/01/16,15:55:22,22,753,0.962646,-0.268005,-0.0333252,-0.0194092,-4.27619,-1.12079,31.0731,0,0,0.5,-0.0078125,0,0,57,0
2017/01/16,15:55:22,22,754,0.962646,-0.268005,-0.0333252,-0.0194092,-4.27619,-1.12079,31.0731,0,0,0.492188,-0.0078125,0,0,58,0
2017/01/16,15:55:22,22,756,0.962708,-0.267822,-0.0332031,-0.0188599,-4.2456,-1.06456,31.0533,0,0,0.492188,-0.0078125,0,0,58,0
2017/01/16,15:55:22,22,770,0.962708,-0.267822,-0.0332031,-0.0188599,-4.2456,-1.06456,31.0533,0,0,0.5,-0.0078125,0,0,58,0
2017/01/16,15:55:22,22,817,0.962769,-0.267578,-0.0331421,-0.0181885,-4.21791,-0.993225,31.0274,0,0,0.492188,-0.0078125,0,0,58,0
2017/01/16,15:55:22,22,888,0.962769,-0.267578,-0.0331421,-0.0181885,-4.21791,-0.993225,31.0274,-0.0078125,0,0.5,-0.0078125,0,0,58,0
2017/01/16,15:55:22,22,889,0.962891,-0.267212,-0.0332031,-0.0172119,-4.19438,-0.884903,30.9873,-0.0078125,0,0.5,-0.0078125,0,-0.0078125,58,0
2017/01/16,15:55:22,22,890,0.962891,-0.267212,-0.0332031,-0.0172119,-4.19438,-0.884903,30.9873,-0.03125,0.015625,0.523438,-0.0078125,-0.0078125,-0.0078125,58,0
2017/01/16,15:55:22,22,900,0.963257,-0.265381,-0.0359497,-0.0180664,-4.52227,-0.90387,30.7705,0,-0.0234375,0.578125,-0.015625,-0.0078125,-0.0078125,58,0
2017/01/16,15:55:22,22,933,0.963257,-0.265381,-0.0359497,-0.0180664,-4.52227,-0.90387,30.7705,0,-0.03125,0.671875,-0.0546875,-0.0078125,-0.0078125,58,0
2017/01/16,15:55:23,23,4,0.962036,-0.261169,-0.0721436,-0.0326538,-8.96701,-1.45869,30.2623,0.0078125,-0.0390625,0.765625,-0.0859375,-0.015625,-0.0078125,57,0
2017/01/16,15:55:23,23,5,0.962036,-0.261169,-0.0721436,-0.0326538,-8.96701,-1.45869,30.2623,-0.0234375,-0.09375,0.84375,-0.117188,-0.015625,-0.0078125,57,0
2017/01/16,15:55:23,23,6,0.953003,-0.255676,-0.149841,-0.0631104,-18.5342,-2.63968,29.6051,-0.0703125,-0.101562,0.921875,-0.148438,-0.0234375,-0.0078125,56,0
2017/01/16,15:55:23,23,67,0.953003,-0.255676,-0.149841,-0.0631104,-18.5342,-2.63968,29.6051,-0.0703125,-0.109375,0.992188,-0.179688,-0.03125,-0.0234375,54,0
2017/01/16,15:55:23,23,68,0.927063,-0.236511,-0.267761,-0.113464,-33.3762,-5.75421,26.8974,-0.226562,-0.0703125,0.992188,-0.203125,-0.0390625,-0.03125,53,0
2017/01/16,15:55:23,23,68,0.927063,-0.236511,-0.267761,-0.113464,-33.3762,-5.75421,26.8974,-0.328125,0.351562,0.9375,-0.226562,-0.0390625,-0.046875,51,0
2017/01/16,15:55:23,23,103,0.876221,-0.196899,-0.40387,-0.174194,-50.9281,-13.4147,18.9187,-0.4375,0.875,0.476562,-0.21875,-0.0390625,-0.046875,49,0
2017/01/16,15:55:23,23,116,0.876221,-0.196899,-0.40387,-0.174194,-50.9281,-13.4147,18.9187,-0.34375,0.828125,0.539062,-0.09375,-0.0078125,-0.03125,47,0.0979997
2017/01/16,15:55:23,23,152,0.869873,-0.169128,-0.427429,-0.178833,-53.5244,-16.271,13.7579,-0.0234375,0.226562,0.234375,0.0625,0.015625,-0.0078125,45,0
2017/01/16,15:55:23,23,166,0.869873,-0.169128,-0.427429,-0.178833,-53.5244,-16.271,13.7579,-0.148438,0.195312,0.242188,0.046875,0,0.0078125,43,0
2017/01/16,15:55:23,23,202,0.897217,-0.179688,-0.372986,-0.153564,-46.4261,-11.8481,17.5536,-0.078125,0.234375,0.328125,0.0625,0.03125,0.015625,42,0
2017/01/16,15:55:23,23,217,0.897217,-0.179688,-0.372986,-0.153564,-46.4261,-11.8481,17.5536,0,0.203125,0.351562,0.0859375,0.03125,0.03125,40,0
2017/01/16,15:55:23,23,253,0.926514,-0.202271,-0.300964,-0.100403,-36.7491,-4.6026,23.1009,-0.078125,0.164062,0.421875,0.101562,0.0234375,0.0390625,39,0
2017/01/16,15:55:23,23,267,0.926514,-0.202271,-0.300964,-0.100403,-36.7491,-4.6026,23.1009,-0.09375,0.125,0.523438,0.117188,0.03125,0.03125,38,0
2017/01/16,15:55:23,23,303,0.9505,-0.235046,-0.19989,-0.036438,-23.3983,1.54211,28.0991,-0.03125,0.0546875,0.664062,0.132812,0.046875,0.0078125,37,0
2017/01/16,15:55:23,23,336,0.9505,-0.235046,-0.19989,-0.036438,-23.3983,1.54211,28.0991,0.0234375,-0.046875,0.796875,0.140625,0.046875,-0.0078125,38,0
2017/01/16,15:55:23,23,350,0.967834,-0.234985,-0.0831299,0.0344849,-8.3202,6.13913,27.7411,0.0234375,-0.109375,0.960938,0.132812,0.0390625,-0.015625,40,0
2017/01/16,15:55:23,23,386,0.967834,-0.234985,-0.0831299,0.0344849,-8.3202,6.13913,27.7411,-0.046875,-0.15625,0.992188,0.140625,0.0390625,-0.015625,47,0
2017/01/16,15:55:23,23,417,0.971497,-0.216309,0.0274658,0.0926514,5.36203,9.72324,24.6484,-0.101562,-0.484375,0.992188,0.164062,0.03125,0,63,0
2017/01/16,15:55:23,23,418,0.971497,-0.216309,0.0274658,0.0926514,5.36203,9.72324,24.6484,-0.117188,-0.898438,0.992188,0.148438,0.03125,0.03125,82,0
2017/01/16,15:55:23,23,450,0.957397,-0.217163,0.12738,0.141296,17.7748,13.0633,23.5084,-0.0546875,-1,0.789062,0.109375,0.0390625,0.0625,102,0
2017/01/16,15:55:23,23,486,0.957397,-0.217163,0.12738,0.141296,17.7748,13.0633,23.5084,0.140625,-1,0.476562,0.0625,0.046875,0.046875,120,0
2017/01/16,15:55:23,23,518,0.938232,-0.254272,0.158691,0.172668,22.6803,15.2907,27.2429,0.4375,-1,0.34375,0.0078125,0.03125,0.0078125,140,0
2017/01/16,15:55:23,23,519,0.938232,-0.254272,0.158691,0.172668,22.6803,15.2907,27.2429,0.328125,-0.984375,0.359375,-0.0234375,-0.015625,-0.015625,158,0
2017/01/16,15:55:23,23,549,0.946045,-0.257141,0.118347,0.157593,17.7564,14.43,28.1462,-0.125,-0.476562,-0.203125,-0.078125,-0.0625,0,174,0.169856
2017/01/16,15:55:23,23,586,0.946045,-0.257141,0.118347,0.157593,17.7564,14.43,28.1462,0.0234375,0.203125,0.84375,-0.109375,-0.164062,0.015625,184,0
2017/01/16,15:55:23,23,600,0.960754,-0.267212,0.0593872,0.0442505,7.91834,3.08435,30.8719,0.25,-0.046875,0.945312,-0.148438,-0.03125,0.0234375,186,0
2017/01/16,15:55:23,23,637,0.960754,-0.267212,0.0593872,0.0442505,7.91834,3.08435,30.8719,-0.03125,-0.09375,0.90625,-0.09375,-0.0390625,-0.015625,184,0
2017/01/16,15:55:23,23,650,0.960327,-0.276855,-0.0294189,-0.0153809,-3.72801,-0.760925,32.139,0.0078125,-0.0078125,0.507812,-0.0078125,-0.0078125,0,182,0
2017/01/16,15:55:23,23,684,0.960327,-0.276855,-0.0294189,-0.0153809,-3.72801,-0.760925,32.139,0,0,0.5,-0.0078125,-0.0078125,0,180,0
2017/01/16,15:55:23,23,700,0.960083,-0.277039,-0.0328979,-0.0189209,-4.22384,-1.04018,32.1534,0,0,0.5,-0.0078125,-0.0078125,0,178,0
2017/01/16,15:55:23,23,734,0.960083,-0.277039,-0.0328979,-0.0189209,-4.22384,-1.04018,32.1534,0,0,0.5,-0.0078125,-0.0078125,0,176,0
2017/01/16,15:55:23,23,770,0.960022,-0.277222,-0.0331421,-0.019165,-4.25872,-1.05855,32.1745,0,0,0.5,-0.0078125,0,0,174,0
2017/01/16,15:55:23,23,771,0.960022,-0.277222,-0.0331421,-0.019165,-4.25872,-1.05855,32.1745,0,0,0.492188,-0.0078125,0,0,172,0
2017/01/16,15:55:23,23,801,0.960022,-0.277222,-0.0327759,-0.0186768,-4.20277,-1.01631,32.1765,-0.0078125,0,0.5,-0.0078125,0,0,171,0
2017/01/16,15:55:23,23,833,0.960022,-0.277222,-0.0327759,-0.0186768,-4.20277,-1.01631,32.1765,-0.0078125,0,0.492188,-0.0078125,0,0,171,0
2017/01/16,15:55:23,23,869,0.960083,-0.2771,-0.0328369,-0.0179443,-4.18615,-0.934097,32.1643,-0.0078125,0,0.492188,-0.0078125,0,0,171,0
2017/01/16,15:55:23,23,883,0.960083,-0.2771,-0.0328369,-0.0179443,-4.18615,-0.934097,32.1643,-0.0078125,0,0.492188,-0.0078125,0,0,171,0
2017/01/16,15:55:23,23,920,0.960144,-0.276978,-0.0325317,-0.017334,-4.13304,-0.876984,32.1514,-0.0078125,0,0.492188,-0.0078125,0,0,171,0
2017/01/16,15:55:23,23,921,0.960144,-0.276978,-0.0325317,-0.017334,-4.13304,-0.876984,32.1514,0,0,0.492188,-0.0078125,0,0,171,0
2017/01/16,15:55:23,23,951,0.960266,-0.276733,-0.0322266,-0.0170288,-4.08964,-0.854065,32.1218,-0.0078125,0,0.492188,-0.0078125,0,0,171,0
2017/01/16,15:55:23,23,984,0.960266,-0.276733,-0.0322266,-0.0170288,-4.08964,-0.854065,32.1218,-0.0078125,0,0.5,-0.0078125,0,0,171,0
2017/01/16,15:55:24,24,3,0.960327,-0.27655,-0.0318604,-0.0167236,-4.03941,-0.832779,32.1008,0,0,0.492188,-0.0078125,0,0,172,0
2017/01/16,15:55:24,24,84,0.960327,-0.27655,-0.0318604,-0.0167236,-4.03941,-0.832779,32.1008,-0.0078125,0,0.5,-0.0078125,0,0,172,0
2017/01/16,15:55:24,24,85,0.960388,-0.276306,-0.0316772,-0.0159912,-3.99571,-0.758804,32.0749,-0.0078125,0,0.492188,-0.0078125,0,0,172,0
2017/01/16,15:55:24,24,86,0.960388,-0.276306,-0.0316772,-0.0159912,-3.99571,-0.758804,32.0749,-0.015625,0,0.5,-0.0078125,0,-0.0078125,172,0
2017/01/16,15:55:24,24,120,0.960571,-0.275574,-0.0324097,-0.0153809,-4.05653,-0.671326,31.991,-0.0234375,0,0.5,-0.0078125,0,-0.0078125,172,0
2017/01/16,15:55:24,24,136,0.960571,-0.275574,-0.0324097,-0.0153809,-4.05653,-0.671326,31.991,0.015625,-0.0078125,0.570312,-0.0234375,-0.0078125,-0.0078125,172,0
2017/01/16,15:55:24,24,150,0.961121,-0.272522,-0.039978,-0.0178833,-4.96773,-0.723923,31.6295,-0.015625,-0.0078125,0.601562,-0.0390625,0,-0.0078125,171,0
2017/01/16,15:55:24,24,167,0.961121,-0.272522,-0.039978,-0.0178833,-4.96773,-0.723923,31.6295,-0.015625,-0.0390625,0.617188,-0.0546875,-0.0078125,-0.0078125,171,0
2017/01/16,15:55:24,24,199,0.959656,-0.269409,-0.0751953,-0.02771,-9.16359,-0.735245,31.3037,-0.03125,-0.0625,0.664062,-0.0703125,-0.0078125,-0.0078125,171,0
2017/01/16,15:55:24,24,236,0.959656,-0.269409,-0.0751953,-0.02771,-9.16359,-0.735245,31.3037,-0.0078125,-0.0859375,0.726562,-0.09375,-0.015625,-0.0078125,171,0
2017/01/16,15:55:24,24,250,0.953674,-0.263672,-0.13562,-0.0502319,-16.5687,-1.45235,30.6986,-0.109375,-0.0859375,0.820312,-0.117188,-0.015625,-0.0078125,170,0
2017/01/16,15:55:24,24,301,0.953674,-0.263672,-0.13562,-0.0502319,-16.5687,-1.45235,30.6986,-0.164062,-0.132812,0.96875,-0.148438,-0.0234375,-0.0234375,169,0
2017/01/16,15:55:24,24,302,0.936279,-0.249451,-0.231262,-0.0878296,-28.4812,-3.20135,29.0246,-0.15625,-0.195312,0.992188,-0.1875,-0.0234375,-0.03125,166,0
