SensorId, TimeStamp (s), FrameNumber, AccX (g), AccY (g), AccZ (g), GyroX (deg/s), GyroY (deg/s), GyroZ (deg/s), MagX (uT), MagY (uT), MagZ (uT), EulerX (deg), EulerY (deg), EulerZ (deg), QuatW, QuatX, QuatY, QuatZ, LinAccX (g), LinAccY (g), LinAccZ (g), Pressure (kPa), Altitude (m), Temperature (degC), HeaveMotion (m)
0, 0.0000, 0, -0.4699, 0.1886, -0.8814, 0.1255, 0.0146, -0.3833, 0.0000, 0.0000, 0.0000, 0.0000, 0.0000, 0.0000, -0.9447, -0.0489, -0.2574, 0.1974, -0.0030, -0.0054, -0.0186, 0.0000, 0.0000, 0.0000, 0.0000
0, 0.0050, 1, -0.4778, 0.1886, -0.8776, -0.1384, 0.0047, -0.3777, 0.0000, 0.0000, 0.0000, 0.0000, 0.0000, 0.0000, -0.9446, -0.0490, -0.2575, 0.1974, -0.0107, -0.0057, -0.0150, 0.0000, 0.0000, 0.0000, 0.0000
0, 0.0100, 2, -0.4657, 0.1888, -0.8699, -0.5342, 0.1368, 0.1036, 0.0000, 0.0000, 0.0000, 0.0000, 0.0000, 0.0000, -0.9447, -0.0490, -0.2574, 0.1974, 0.0012, -0.0054, -0.0072, 0.0000, 0.0000, 0.0000, 0.0000
0, 0.0150, 3, -0.4738, 0.2005, -0.8738, -0.0785, 0.1988, -0.8591, 0.0000, 0.0000, 0.0000, 0.0000, 0.0000, 0.0000, -0.9447, -0.0491, -0.2574, 0.1974, -0.0069, 0.0062, -0.0111, 0.0000, 0.0000, 0.0000, 0.0000
0, 0.0200, 4, -0.4537, 0.1967, -0.8700, 0.0675, -0.3911, -0.2374, 0.0000, 0.0000, 0.0000, 0.0000, 0.0000, 0.0000, -0.9447, -0.0491, -0.2573, 0.1974, 0.0130, 0.0023, -0.0072, 0.0000, 0.0000, 0.0000, 0.0000
0, 0.0250, 5, -0.4857, 0.1927, -0.8699, -1.1201, -0.5086, -0.4148, 0.0000, 0.0000, 0.0000, 0.0000, 0.0000, 0.0000, -0.9447, -0.0491, -0.2573, 0.1974, -0.0191, -0.0018, -0.0071, 0.0000, 0.0000, 0.0000, 0.0000
0, 0.0300, 6, -0.4659, 0.1924, -0.8853, -1.2703, 0.5755, -0.2309, 0.0000, 0.0000, 0.0000, 0.0000, 0.0000, 0.0000, -0.9447, -0.0492, -0.2572, 0.1973, 0.0007, -0.0021, -0.0225, 0.0000, 0.0000, 0.0000, 0.0000
0, 0.0350, 7, -0.4657, 0.1967, -0.8661, 0.0612, -0.2738, -0.9879, 0.0000, 0.0000, 0.0000, 0.0000, 0.0000, 0.0000, -0.9447, -0.0492, -0.2572, 0.1973, 0.0009, 0.0023, -0.0033, 0.0000, 0.0000, 0.0000, 0.0000
0, 0.0400, 8, -0.4817, 0.1888, -0.8660, -0.5994, 0.0649, 0.0384, 0.0000, 0.0000, 0.0000, 0.0000, 0.0000, 0.0000, -0.9447, -0.0491, -0.2572, 0.1973, -0.0150, -0.0055, -0.0032, 0.0000, 0.0000, 0.0000, 0.0000
0, 0.0450, 9, -0.4776, 0.1889, -0.8622, -0.4541, -0.8952, -0.6241, 0.0000, 0.0000, 0.0000, 0.0000, 0.0000, 0.0000, -0.9447, -0.0491, -0.2573, 0.1973, -0.0109, -0.0054, 0.0006, 0.0000, 0.0000, 0.0000, 0.0000
0, 0.0500, 10, -0.4618, 0.2005, -0.8738, -0.5206, -0.6068, 0.1872, 0.0000, 0.0000, 0.0000, 0.0000, 0.0000, 0.0000, -0.9447, -0.0491, -0.2573, 0.1973, 0.0049, 0.0061, -0.0111, 0.0000, 0.0000, 0.0000, 0.0000
0, 0.0550, 11, -0.4658, 0.2044, -0.8739, -0.3887, -0.6018, 0.1844, 0.0000, 0.0000, 0.0000, 0.0000, 0.0000, 0.0000, -0.9447, -0.0492, -0.2573, 0.1973, 0.0010, 0.0100, -0.0111, 0.0000, 0.0000, 0.0000, 0.0000
0, 0.0600, 12, -0.4780, 0.2081, -0.8816, -0.4585, -0.4754, -0.0889, 0.0000, 0.0000, 0.0000, 0.0000, 0.0000, 0.0000, -0.9447, -0.0492, -0.2573, 0.1972, -0.0112, 0.0136, -0.0189, 0.0000, 0.0000, 0.0000, 0.0000
0, 0.0650, 13, -0.4777, 0.1888, -0.8660, -0.1996, -0.2688, -0.3706, 0.0000, 0.0000, 0.0000, 0.0000, 0.0000, 0.0000, -0.9447, -0.0492, -0.2574, 0.1972, -0.0108, -0.0056, -0.0034, 0.0000, 0.0000, 0.0000, 0.0000
0, 0.0700, 14, -0.4576, 0.2007, -0.8623, -0.9198, -0.4168, 0.2592, 0.0000, 0.0000, 0.0000, 0.0000, 0.0000, 0.0000, -0.9447, -0.0493, -0.2574, 0.1972, 0.0092, 0.0060, 0.0003, 0.0000, 0.0000, 0.0000, 0.0000
0, 0.0750, 15, -0.4658, 0.1926, -0.8776, -0.2489, -0.9274, 0.5285, 0.0000, 0.0000, 0.0000, 0.0000, 0.0000, 0.0000, -0.9447, -0.0493, -0.2574, 0.1972, 0.0010, -0.0022, -0.0150, 0.0000, 0.0000, 0.0000, 0.0000
0, 0.0800, 16, -0.4577, 0.1928, -0.8699, -0.7278, -0.2904, -0.4274, 0.0000, 0.0000, 0.0000, 0.0000, 0.0000, 0.0000, -0.9447, -0.0494, -0.2573, 0.1972, 0.0089, -0.0020, -0.0072, 0.0000, 0.0000, 0.0000, 0.0000
0, 0.0850, 17, -0.4578, 0.1926, -0.8776, -0.4683, -0.0078, -0.3707, 0.0000, 0.0000, 0.0000, 0.0000, 0.0000, 0.0000, -0.9448, -0.0493, -0.2571, 0.1972, 0.0085, -0.0020, -0.0147, 0.0000, 0.0000, 0.0000, 0.0000
0, 0.0900, 18, -0.4697, 0.1848, -0.8737, -0.3973, -0.2019, -0.0960, 0.0000, 0.0000, 0.0000, 0.0000, 0.0000, 0.0000, -0.9448, -0.0492, -0.2571, 0.1972, -0.0034, -0.0096, -0.0107, 0.0000, 0.0000, 0.0000, 0.0000
0, 0.0950, 19, -0.4698, 0.1847, -0.8775, -0.3312, -0.2722, -0.2999, 0.0000, 0.0000, 0.0000, 0.0000, 0.0000, 0.0000, -0.9448, -0.0491, -0.2570, 0.1972, -0.0035, -0.0095, -0.0145, 0.0000, 0.0000, 0.0000, 0.0000
0, 0.1000, 20, -0.4696, 0.2007, -0.8623, -0.4022, -0.0780, -0.5746, 0.0000, 0.0000, 0.0000, 0.0000, 0.0000, 0.0000, -0.9448, -0.0491, -0.2571, 0.1972, -0.0033, 0.0065, 0.0007, 0.0000, 0.0000, 0.0000, 0.0000
0, 0.1050, 21, -0.4739, 0.1807, -0.8852, -0.4063, 0.1963, -0.4444, 0.0000, 0.0000, 0.0000, 0.0000, 0.0000, 0.0000, -0.9448, -0.0491, -0.2570, 0.1972, -0.0076, -0.0134, -0.0221, 0.0000, 0.0000, 0.0000, 0.0000
0, 0.1100, 22, -0.4778, 0.2004, -0.8738, 0.0624, -0.1944, -0.5135, 0.0000, 0.0000, 0.0000, 0.0000, 0.0000, 0.0000, -0.9448, -0.0491, -0.2570, 0.1972, -0.0115, 0.0063, -0.0108, 0.0000, 0.0000, 0.0000, 0.0000
0, 0.1150, 23, -0.4896, 0.1929, -0.8584, -0.5937, -0.2755, -0.0224, 0.0000, 0.0000, 0.0000, 0.0000, 0.0000, 0.0000, -0.9448, -0.0491, -0.2572, 0.1972, -0.0230, -0.0013, 0.0045, 0.0000, 0.0000, 0.0000, 0.0000
0, 0.1200, 24, -0.4656, 0.1890, -0.8622, -0.5210, -0.6085, 0.1192, 0.0000, 0.0000, 0.0000, 0.0000, 0.0000, 0.0000, -0.9447, -0.0491, -0.2572, 0.1972, 0.0011, -0.0053, 0.0006, 0.0000, 0.0000, 0.0000, 0.0000
0, 0.1250, 25, -0.4618, 0.2005, -0.8738, -0.8591, -0.2921, -0.2887, 0.0000, 0.0000, 0.0000, 0.0000, 0.0000, 0.0000, -0.9447, -0.0491, -0.2572, 0.1972, 0.0049, 0.0063, -0.0110, 0.0000, 0.0000, 0.0000, 0.0000
0, 0.1300, 26, -0.4896, 0.2046, -0.8585, -0.1912, -0.5233, 0.3147, 0.0000, 0.0000, 0.0000, 0.0000, 0.0000, 0.0000, -0.9447, -0.0491, -0.2574, 0.1972, -0.0226, 0.0103, 0.0042, 0.0000, 0.0000, 0.0000, 0.0000
0, 0.1350, 27, -0.4739, 0.1965, -0.8776, -0.0777, 0.1294, -0.9256, 0.0000, 0.0000, 0.0000, 0.0000, 0.0000, 0.0000, -0.9446, -0.0492, -0.2576, 0.1971, -0.0066, 0.0019, -0.0152, 0.0000, 0.0000, 0.0000, 0.0000
0, 0.1400, 28, -0.4737, 0.1966, -0.8700, -0.4022, -0.0780, -0.5746, 0.0000, 0.0000, 0.0000, 0.0000, 0.0000, 0.0000, -0.9446, -0.0493, -0.2576, 0.1971, -0.0064, 0.0019, -0.0076, 0.0000, 0.0000, 0.0000, 0.0000
0, 0.1450, 29, -0.4777, 0.1967, -0.8661, -0.7975, -0.0169, -0.2278, 0.0000, 0.0000, 0.0000, 0.0000, 0.0000, 0.0000, -0.9446, -0.0493, -0.2577, 0.1971, -0.0103, 0.0019, -0.0038, 0.0000, 0.0000, 0.0000, 0.0000
0, 0.1500, 30, -0.4776, 0.1929, -0.8584, -0.4632, -0.0573, 0.3783, 0.0000, 0.0000, 0.0000, 0.0000, 0.0000, 0.0000, -0.9446, -0.0493, -0.2578, 0.1971, -0.0100, -0.0019, 0.0039, 0.0000, 0.0000, 0.0000, 0.0000
0, 0.1550, 31, -0.4737, 0.1848, -0.8737, -0.6687, 0.1203, -0.3694, 0.0000, 0.0000, 0.0000, 0.0000, 0.0000, 0.0000, -0.9446, -0.0493, -0.2578, 0.1971, -0.0062, -0.0099, -0.0114, 0.0000, 0.0000, 0.0000, 0.0000
0, 0.1600, 32, -0.4698, 0.2005, -0.8700, -0.6666, -0.0169, -0.4345, 0.0000, 0.0000, 0.0000, 0.0000, 0.0000, 0.0000, -0.9446, -0.0494, -0.2577, 0.1971, -0.0023, 0.0057, -0.0077, 0.0000, 0.0000, 0.0000, 0.0000
0, 0.1650, 33, -0.4737, 0.1967, -0.8661, -0.5385, 0.1170, -0.7120, 0.0000, 0.0000, 0.0000, 0.0000, 0.0000, 0.0000, -0.9446, -0.0493, -0.2577, 0.1970, -0.0063, 0.0019, -0.0038, 0.0000, 0.0000, 0.0000, 0.0000
0, 0.1700, 34, -0.4736, 0.2007, -0.8623, -0.1352, -0.2002, -0.4414, 0.0000, 0.0000, 0.0000, 0.0000, 0.0000, 0.0000, -0.9446, -0.0494, -0.2577, 0.1970, -0.0062, 0.0058, -0.0000, 0.0000, 0.0000, 0.0000, 0.0000
0, 0.1750, 35, -0.4818, 0.1926, -0.8738, -0.5218, -0.7589, -0.4896, 0.0000, 0.0000, 0.0000, 0.0000, 0.0000, 0.0000, -0.9446, -0.0494, -0.2577, 0.1970, -0.0144, -0.0022, -0.0114, 0.0000, 0.0000, 0.0000, 0.0000
0, 0.1800, 36, -0.4696, 0.2007, -0.8623, -0.9975, 0.1128, -0.1586, 0.0000, 0.0000, 0.0000, 0.0000, 0.0000, 0.0000, -0.9446, -0.0495, -0.2578, 0.1970, -0.0021, 0.0057, -0.0001, 0.0000, 0.0000, 0.0000, 0.0000
0, 0.1850, 37, -0.4778, 0.1926, -0.8738, -0.7941, -0.1475, -0.0211, 0.0000, 0.0000, 0.0000, 0.0000, 0.0000, 0.0000, -0.9446, -0.0494, -0.2578, 0.1970, -0.0102, -0.0023, -0.0116, 0.0000, 0.0000, 0.0000, 0.0000
0, 0.1900, 38, -0.4699, 0.2042, -0.8816, -0.9990, 0.1062, -0.4304, 0.0000, 0.0000, 0.0000, 0.0000, 0.0000, 0.0000, -0.9446, -0.0494, -0.2577, 0.1969, -0.0025, 0.0094, -0.0193, 0.0000, 0.0000, 0.0000, 0.0000
0, 0.1950, 39, -0.4778, 0.2044, -0.8700, 0.2017, -0.4489, -0.0349, 0.0000, 0.0000, 0.0000, 0.0000, 0.0000, 0.0000, -0.9446, -0.0494, -0.2578, 0.1969, -0.0102, 0.0096, -0.0078, 0.0000, 0.0000, 0.0000, 0.0000
0, 0.2000, 40, -0.4778, 0.1926, -0.8738, -0.5938, -0.4226, -0.4953, 0.0000, 0.0000, 0.0000, 0.0000, 0.0000, 0.0000, -0.9446, -0.0494, -0.2578, 0.1969, -0.0101, -0.0022, -0.0116, 0.0000, 0.0000, 0.0000, 0.0000
0, 0.2050, 41, -0.4697, 0.2006, -0.8662, -0.3386, 0.0600, -0.5788, 0.0000, 0.0000, 0.0000, 0.0000, 0.0000, 0.0000, -0.9446, -0.0494, -0.2578, 0.1969, -0.0021, 0.0057, -0.0040, 0.0000, 0.0000, 0.0000, 0.0000
0, 0.2100, 42, -0.4777, 0.1928, -0.8661, -0.6633, -0.0747, -0.0253, 0.0000, 0.0000, 0.0000, 0.0000, 0.0000, 0.0000, -0.9446, -0.0494, -0.2579, 0.1968, -0.0099, -0.0021, -0.0039, 0.0000, 0.0000, 0.0000, 0.0000
0, 0.2150, 43, -0.4819, 0.2160, -0.8778, -0.9263, -0.0070, 0.3866, 0.0000, 0.0000, 0.0000, 0.0000, 0.0000, 0.0000, -0.9446, -0.0494, -0.2579, 0.1968, -0.0142, 0.0211, -0.0158, 0.0000, 0.0000, 0.0000, 0.0000
0, 0.2200, 44, -0.4698, 0.2045, -0.8700, -0.7306, -0.1565, -0.4982, 0.0000, 0.0000, 0.0000, 0.0000, 0.0000, 0.0000, -0.9446, -0.0495, -0.2579, 0.1968, -0.0020, 0.0095, -0.0080, 0.0000, 0.0000, 0.0000, 0.0000
0, 0.2250, 45, -0.4695, 0.2008, -0.8546, 0.1957, -0.1101, -0.0420, 0.0000, 0.0000, 0.0000, 0.0000, 0.0000, 0.0000, -0.9446, -0.0496, -0.2580, 0.1968, -0.0017, 0.0057, 0.0074, 0.0000, 0.0000, 0.0000, 0.0000
0, 0.2350, 46, -0.4616, 0.1929, -0.8622, -0.6074, 0.5409, 0.0964, 0.0000, 0.0000, 0.0000, 0.0000, 0.0000, 0.0000, -0.9446, -0.0496, -0.2581, 0.1968, 0.0064, -0.0024, -0.0003, 0.0000, 0.0000, 0.0000, 0.0000
0, 0.2400, 47, -0.4776, 0.1968, -0.8584, -0.5816, -0.8060, 0.4647, 0.0000, 0.0000, 0.0000, 0.0000, 0.0000, 0.0000, -0.9446, -0.0496, -0.2581, 0.1968, -0.0095, 0.0016, 0.0034, 0.0000, 0.0000, 0.0000, 0.0000
0, 0.2450, 48, -0.4698, 0.1926, -0.8776, -0.6614, -0.1392, 0.1120, 0.0000, 0.0000, 0.0000, 0.0000, 0.0000, 0.0000, -0.9446, -0.0495, -0.2581, 0.1968, -0.0018, -0.0026, -0.0157, 0.0000, 0.0000, 0.0000, 0.0000
0, 0.2500, 49, -0.4573, 0.1933, -0.8430, -0.4020, -0.0036, -0.3042, 0.0000, 0.0000, 0.0000, 0.0000, 0.0000, 0.0000, -0.9446, -0.0496, -0.2581, 0.1968, 0.0108, -0.0020, 0.0188, 0.0000, 0.0000, 0.0000, 0.0000
0, 0.2550, 50, -0.4778, 0.2004, -0.8738, -1.0607, -0.2434, -0.7617, 0.0000, 0.0000, 0.0000, 0.0000, 0.0000, 0.0000, -0.9446, -0.0496, -0.2582, 0.1967, -0.0096, 0.0051, -0.0121, 0.0000, 0.0000, 0.0000, 0.0000
0, 0.2600, 51, -0.4659, 0.2004, -0.8777, -0.9890, -0.4342, -0.3511, 0.0000, 0.0000, 0.0000, 0.0000, 0.0000, 0.0000, -0.9446, -0.0497, -0.2582, 0.1967, 0.0023, 0.0050, -0.0159, 0.0000, 0.0000, 0.0000, 0.0000
0, 0.2650, 52, -0.4618, 0.1927, -0.8738, -0.5917, -0.4127, -0.0876, 0.0000, 0.0000, 0.0000, 0.0000, 0.0000, 0.0000, -0.9446, -0.0497, -0.2581, 0.1967, 0.0063, -0.0028, -0.0120, 0.0000, 0.0000, 0.0000, 0.0000
0, 0.2700, 53, -0.4660, 0.1963, -0.8853, -0.7281, -0.1450, -0.0225, 0.0000, 0.0000, 0.0000, 0.0000, 0.0000, 0.0000, -0.9446, -0.0497, -0.2580, 0.1967, 0.0019, 0.0009, -0.0234, 0.0000, 0.0000, 0.0000, 0.0000
0, 0.2750, 54, -0.4697, 0.2006, -0.8662, -0.4017, -0.1491, -0.7091, 0.0000, 0.0000, 0.0000, 0.0000, 0.0000, 0.0000, -0.9446, -0.0498, -0.2580, 0.1967, -0.0019, 0.0051, -0.0042, 0.0000, 0.0000, 0.0000, 0.0000
0, 0.2800, 55, -0.4738, 0.1887, -0.8737, -0.8591, -0.4392, -0.7616, 0.0000, 0.0000, 0.0000, 0.0000, 0.0000, 0.0000, -0.9446, -0.0498, -0.2580, 0.1966, -0.0059, -0.0068, -0.0118, 0.0000, 0.0000, 0.0000, 0.0000
0, 0.2850, 56, -0.4617, 0.1889, -0.8660, -0.0058, -0.1341, -0.7175, 0.0000, 0.0000, 0.0000, 0.0000, 0.0000, 0.0000, -0.9446, -0.0498, -0.2580, 0.1966, 0.0062, -0.0066, -0.0041, 0.0000, 0.0000, 0.0000, 0.0000
0, 0.2900, 57, -0.4697, 0.2045, -0.8662, -0.6627, 0.0013, 0.3131, 0.0000, 0.0000, 0.0000, 0.0000, 0.0000, 0.0000, -0.9446, -0.0499, -0.2580, 0.1966, -0.0019, 0.0089, -0.0043, 0.0000, 0.0000, 0.0000, 0.0000
0, 0.2950, 58, -0.4698, 0.2005, -0.8738, -0.4701, -0.0160, -0.7106, 0.0000, 0.0000, 0.0000, 0.0000, 0.0000, 0.0000, -0.9446, -0.0499, -0.2580, 0.1966, -0.0020, 0.0048, -0.0119, 0.0000, 0.0000, 0.0000, 0.0000
0, 0.3000, 59, -0.4656, 0.1811, -0.8621, -0.1954, -0.3961, -0.0280, 0.0000, 0.0000, 0.0000, 0.0000, 0.0000, 0.0000, -0.9446, -0.0498, -0.2580, 0.1965, 0.0023, -0.0144, -0.0002, 0.0000, 0.0000, 0.0000, 0.0000
0, 0.3050, 60, -0.4775, 0.1969, -0.8546, -0.3824, -1.0861, -0.2134, 0.0000, 0.0000, 0.0000, 0.0000, 0.0000, 0.0000, -0.9446, -0.0498, -0.2581, 0.1965, -0.0096, 0.0013, 0.0073, 0.0000, 0.0000, 0.0000, 0.0000
0, 0.3100, 61, -0.4778, 0.1887, -0.8737, -0.2632, -0.4068, -0.3664, 0.0000, 0.0000, 0.0000, 0.0000, 0.0000, 0.0000, -0.9446, -0.0498, -0.2581, 0.1965, -0.0098, -0.0068, -0.0119, 0.0000, 0.0000, 0.0000, 0.0000
0, 0.3150, 62, -0.4617, 0.1888, -0.8699, -0.1979, -0.4077, -0.5037, 0.0000, 0.0000, 0.0000, 0.0000, 0.0000, 0.0000, -0.9446, -0.0498, -0.2580, 0.1965, 0.0062, -0.0067, -0.0080, 0.0000, 0.0000, 0.0000, 0.0000
0, 0.3200, 63, -0.4778, 0.1847, -0.8775, 0.0687, -0.4588, -0.2360, 0.0000, 0.0000, 0.0000, 0.0000, 0.0000, 0.0000, -0.9446, -0.0498, -0.2580, 0.1965, -0.0099, -0.0107, -0.0156, 0.0000, 0.0000, 0.0000, 0.0000
0, 0.3250, 64, -0.4617, 0.1967, -0.8700, -0.4027, -0.0069, -0.4401, 0.0000, 0.0000, 0.0000, 0.0000, 0.0000, 0.0000, -0.9447, -0.0497, -0.2580, 0.1965, 0.0061, 0.0013, -0.0080, 0.0000, 0.0000, 0.0000, 0.0000
0, 0.3300, 65, -0.4615, 0.2009, -0.8546, 0.1907, 0.2336, 0.1548, 0.0000, 0.0000, 0.0000, 0.0000, 0.0000, 0.0000, -0.9446, -0.0498, -0.2580, 0.1965, 0.0064, 0.0053, 0.0072, 0.0000, 0.0000, 0.0000, 0.0000
0, 0.3350, 66, -0.4659, 0.2122, -0.8740, -0.0675, -0.1168, 0.0995, 0.0000, 0.0000, 0.0000, 0.0000, 0.0000, 0.0000, -0.9446, -0.0500, -0.2580, 0.1965, 0.0018, 0.0163, -0.0121, 0.0000, 0.0000, 0.0000, 0.0000
0, 0.3400, 67, -0.4619, 0.1965, -0.8776, -0.3967, -0.3457, -0.4330, 0.0000, 0.0000, 0.0000, 0.0000, 0.0000, 0.0000, -0.9446, -0.0501, -0.2580, 0.1965, 0.0058, 0.0004, -0.0158, 0.0000, 0.0000, 0.0000, 0.0000
0, 0.3450, 68, -0.4577, 0.1849, -0.8698, 0.3926, -0.1076, -0.2501, 0.0000, 0.0000, 0.0000, 0.0000, 0.0000, 0.0000, -0.9447, -0.0501, -0.2579, 0.1965, 0.0099, -0.0111, -0.0079, 0.0000, 0.0000, 0.0000, 0.0000
0, 0.3500, 69, -0.4816, 0.1967, -0.8623, -0.1371, 0.0840, 0.0966, 0.0000, 0.0000, 0.0000, 0.0000, 0.0000, 0.0000, -0.9446, -0.0501, -0.2582, 0.1965, -0.0136, 0.0006, -0.0006, 0.0000, 0.0000, 0.0000, 0.0000
0, 0.3550, 70, -0.4700, 0.1963, -0.8853, 0.1915, 0.0171, -0.3847, 0.0000, 0.0000, 0.0000, 0.0000, 0.0000, 0.0000, -0.9446, -0.0501, -0.2581, 0.1964, -0.0020, 0.0004, -0.0236, 0.0000, 0.0000, 0.0000, 0.0000
0, 0.3600, 71, -0.4737, 0.1888, -0.8699, 0.3891, 0.0229, -0.4568, 0.0000, 0.0000, 0.0000, 0.0000, 0.0000, 0.0000, -0.9446, -0.0500, -0.2580, 0.1964, -0.0058, -0.0070, -0.0080, 0.0000, 0.0000, 0.0000, 0.0000
0, 0.3650, 72, -0.4578, 0.1926, -0.8776, 0.1245, 0.1568, -0.1143, 0.0000, 0.0000, 0.0000, 0.0000, 0.0000, 0.0000, -0.9447, -0.0500, -0.2578, 0.1964, 0.0097, -0.0032, -0.0156, 0.0000, 0.0000, 0.0000, 0.0000
0, 0.3700, 73, -0.4657, 0.1927, -0.8699, 0.0525, 0.3459, -0.5929, 0.0000, 0.0000, 0.0000, 0.0000, 0.0000, 0.0000, -0.9447, -0.0500, -0.2577, 0.1964, 0.0016, -0.0031, -0.0078, 0.0000, 0.0000, 0.0000, 0.0000
0, 0.3750, 74, -0.4699, 0.1965, -0.8776, -0.4032, 0.0641, -0.3056, 0.0000, 0.0000, 0.0000, 0.0000, 0.0000, 0.0000, -0.9447, -0.0500, -0.2578, 0.1964, -0.0025, 0.0008, -0.0155, 0.0000, 0.0000, 0.0000, 0.0000
0, 0.3800, 75, -0.4736, 0.1968, -0.8584, -0.1353, -0.1275, -0.2389, 0.0000, 0.0000, 0.0000, 0.0000, 0.0000, 0.0000, -0.9447, -0.0500, -0.2578, 0.1964, -0.0061, 0.0011, 0.0036, 0.0000, 0.0000, 0.0000, 0.0000
0, 0.3850, 76, -0.4657, 0.1809, -0.8736, 0.1807, 0.7740, 0.0754, 0.0000, 0.0000, 0.0000, 0.0000, 0.0000, 0.0000, -0.9447, -0.0499, -0.2578, 0.1964, 0.0017, -0.0146, -0.0115, 0.0000, 0.0000, 0.0000, 0.0000
0, 0.3900, 77, -0.4577, 0.1967, -0.8700, -0.0099, 0.1402, -0.5872, 0.0000, 0.0000, 0.0000, 0.0000, 0.0000, 0.0000, -0.9447, -0.0499, -0.2577, 0.1964, 0.0097, 0.0011, -0.0078, 0.0000, 0.0000, 0.0000, 0.0000
0, 0.3950, 78, -0.4697, 0.2006, -0.8662, 0.1229, 0.0758, -0.6565, 0.0000, 0.0000, 0.0000, 0.0000, 0.0000, 0.0000, -0.9447, -0.0499, -0.2577, 0.1963, -0.0023, 0.0050, -0.0040, 0.0000, 0.0000, 0.0000, 0.0000
0, 0.4000, 79, -0.4658, 0.1926, -0.8776, 0.1245, 0.0097, -0.5872, 0.0000, 0.0000, 0.0000, 0.0000, 0.0000, 0.0000, -0.9448, -0.0499, -0.2577, 0.1963, 0.0015, -0.0028, -0.0154, 0.0000, 0.0000, 0.0000, 0.0000
0, 0.4050, 80, -0.4776, 0.1849, -0.8660, 0.1957, -0.1101, -0.0420, 0.0000, 0.0000, 0.0000, 0.0000, 0.0000, 0.0000, -0.9448, -0.0496, -0.2577, 0.1963, -0.0101, -0.0101, -0.0038, 0.0000, 0.0000, 0.0000, 0.0000
0, 0.4100, 81, -0.4657, 0.2085, -0.8662, -0.1272, -0.6035, -0.2969, 0.0000, 0.0000, 0.0000, 0.0000, 0.0000, 0.0000, -0.9447, -0.0497, -0.2578, 0.1963, 0.0018, 0.0133, -0.0041, 0.0000, 0.0000, 0.0000, 0.0000
0, 0.4150, 82, -0.4779, 0.2122, -0.8740, -0.0039, -0.1986, -0.5801, 0.0000, 0.0000, 0.0000, 0.0000, 0.0000, 0.0000, -0.9447, -0.0499, -0.2579, 0.1963, -0.0102, 0.0166, -0.0119, 0.0000, 0.0000, 0.0000, 0.0000
0, 0.4200, 83, -0.4696, 0.2047, -0.8585, -0.6076, 0.2467, -0.8494, 0.0000, 0.0000, 0.0000, 0.0000, 0.0000, 0.0000, -0.9447, -0.0500, -0.2579, 0.1962, -0.0020, 0.0090, 0.0035, 0.0000, 0.0000, 0.0000, 0.0000
0, 0.4250, 84, -0.4817, 0.1967, -0.8661, -0.1427, 0.2046, -0.5179, 0.0000, 0.0000, 0.0000, 0.0000, 0.0000, 0.0000, -0.9447, -0.0500, -0.2579, 0.1962, -0.0140, 0.0010, -0.0042, 0.0000, 0.0000, 0.0000, 0.0000
0, 0.4300, 85, -0.4697, 0.2045, -0.8662, -0.1303, -0.3242, 0.0372, 0.0000, 0.0000, 0.0000, 0.0000, 0.0000, 0.0000, -0.9447, -0.0500, -0.2580, 0.1962, -0.0019, 0.0088, -0.0043, 0.0000, 0.0000, 0.0000, 0.0000
0, 0.4350, 86, -0.4737, 0.2084, -0.8662, -0.0777, 0.1294, -0.9256, 0.0000, 0.0000, 0.0000, 0.0000, 0.0000, 0.0000, -0.9447, -0.0501, -0.2580, 0.1962, -0.0060, 0.0125, -0.0044, 0.0000, 0.0000, 0.0000, 0.0000
0, 0.4400, 87, -0.4656, 0.1929, -0.8622, -0.4616, -0.3432, -0.2277, 0.0000, 0.0000, 0.0000, 0.0000, 0.0000, 0.0000, -0.9447, -0.0501, -0.2579, 0.1962, 0.0020, -0.0030, -0.0003, 0.0000, 0.0000, 0.0000, 0.0000
0, 0.4450, 88, -0.4658, 0.2123, -0.8701, 0.3216, 0.0865, -0.5248, 0.0000, 0.0000, 0.0000, 0.0000, 0.0000, 0.0000, -0.9447, -0.0502, -0.2579, 0.1962, 0.0018, 0.0163, -0.0082, 0.0000, 0.0000, 0.0000, 0.0000
0, 0.4500, 89, -0.4657, 0.2046, -0.8624, -0.2063, 0.0666, -0.5137, 0.0000, 0.0000, 0.0000, 0.0000, 0.0000, 0.0000, -0.9447, -0.0503, -0.2579, 0.1962, 0.0020, 0.0084, -0.0005, 0.0000, 0.0000, 0.0000, 0.0000
0, 0.4550, 90, -0.4817, 0.2006, -0.8662, 0.3264, -0.1845, -0.5191, 0.0000, 0.0000, 0.0000, 0.0000, 0.0000, 0.0000, -0.9447, -0.0503, -0.2580, 0.1961, -0.0140, 0.0043, -0.0043, 0.0000, 0.0000, 0.0000, 0.0000
0, 0.4600, 91, -0.4857, 0.1927, -0.8661, -0.0127, 0.2741, -0.6580, 0.0000, 0.0000, 0.0000, 0.0000, 0.0000, 0.0000, -0.9447, -0.0502, -0.2581, 0.1961, -0.0177, -0.0034, -0.0044, 0.0000, 0.0000, 0.0000, 0.0000
0, 0.4650, 92, -0.4778, 0.2005, -0.8700, 0.4488, 0.5096, -0.0604, 0.0000, 0.0000, 0.0000, 0.0000, 0.0000, 0.0000, -0.9447, -0.0502, -0.2581, 0.1961, -0.0097, 0.0043, -0.0083, 0.0000, 0.0000, 0.0000, 0.0000
0, 0.4700, 93, -0.4697, 0.1849, -0.8698, -0.0035, -0.1969, -0.5121, 0.0000, 0.0000, 0.0000, 0.0000, 0.0000, 0.0000, -0.9447, -0.0502, -0.2581, 0.1961, -0.0017, -0.0111, -0.0081, 0.0000, 0.0000, 0.0000, 0.0000
0, 0.4750, 94, -0.4658, 0.1887, -0.8776, 0.1825, 0.4154, -0.7330, 0.0000, 0.0000, 0.0000, 0.0000, 0.0000, 0.0000, -0.9447, -0.0501, -0.2580, 0.1960, 0.0021, -0.0072, -0.0158, 0.0000, 0.0000, 0.0000, 0.0000
0, 0.4800, 95, -0.4738, 0.1925, -0.8776, 0.0550, 0.1377, -0.7925, 0.0000, 0.0000, 0.0000, 0.0000, 0.0000, 0.0000, -0.9447, -0.0500, -0.2580, 0.1960, -0.0060, -0.0031, -0.0157, 0.0000, 0.0000, 0.0000, 0.0000
0, 0.4850, 96, -0.4697, 0.1927, -0.8699, -0.0072, 0.0063, -0.5164, 0.0000, 0.0000, 0.0000, 0.0000, 0.0000, 0.0000, -0.9447, -0.0500, -0.2580, 0.1960, -0.0018, -0.0029, -0.0081, 0.0000, 0.0000, 0.0000, 0.0000
0, 0.4900, 97, -0.4698, 0.1966, -0.8738, 0.3161, 0.5013, -0.1935, 0.0000, 0.0000, 0.0000, 0.0000, 0.0000, 0.0000, -0.9447, -0.0500, -0.2581, 0.1959, -0.0018, 0.0010, -0.0120, 0.0000, 0.0000, 0.0000, 0.0000
0, 0.4950, 98, -0.4777, 0.1928, -0.8661, -0.2645, -0.2664, -0.1653, 0.0000, 0.0000, 0.0000, 0.0000, 0.0000, 0.0000, -0.9447, -0.0499, -0.2581, 0.1959, -0.0095, -0.0027, -0.0043, 0.0000, 0.0000, 0.0000, 0.0000
0, 0.5000, 99, -0.4661, 0.2080, -0.8893, -0.2738, 0.1302, -0.5816, 0.0000, 0.0000, 0.0000, 0.0000, 0.0000, 0.0000, -0.9447, -0.0500, -0.2582, 0.1959, 0.0021, 0.0125, -0.0276, 0.0000, 0.0000, 0.0000, 0.0000
0, 0.5050, 100, -0.4739, 0.2004, -0.8777, -0.7399, 0.2401, -0.9146, 0.0000, 0.0000, 0.0000, 0.0000, 0.0000, 0.0000, -0.9447, -0.0500, -0.2581, 0.1959, -0.0058, 0.0048, -0.0159, 0.0000, 0.0000, 0.0000, 0.0000
0, 0.5100, 101, -0.4616, 0.2048, -0.8547, 0.0527, 0.2005, -0.9978, 0.0000, 0.0000, 0.0000, 0.0000, 0.0000, 0.0000, -0.9447, -0.0500, -0.2581, 0.1958, 0.0066, 0.0092, 0.0071, 0.0000, 0.0000, 0.0000, 0.0000
0, 0.5150, 102, -0.4736, 0.1968, -0.8623, -1.1428, 0.7060, -0.6443, 0.0000, 0.0000, 0.0000, 0.0000, 0.0000, 0.0000, -0.9448, -0.0500, -0.2581, 0.1958, -0.0056, 0.0011, -0.0005, 0.0000, 0.0000, 0.0000, 0.0000
0, 0.5200, 103, -0.4618, 0.2124, -0.8663, -0.3300, -0.3399, -0.2984, 0.0000, 0.0000, 0.0000, 0.0000, 0.0000, 0.0000, -0.9448, -0.0501, -0.2580, 0.1958, 0.0062, 0.0167, -0.0045, 0.0000, 0.0000, 0.0000, 0.0000
0, 0.5250, 104, -0.4616, 0.1969, -0.8584, -0.3354, 0.0749, 0.0328, 0.0000, 0.0000, 0.0000, 0.0000, 0.0000, 0.0000, -0.9448, -0.0501, -0.2580, 0.1958, 0.0063, 0.0011, 0.0034, 0.0000, 0.0000, 0.0000, 0.0000
0, 0.5300, 105, -0.4497, 0.1929, -0.8661, -0.0068, 0.0080, -0.4484, 0.0000, 0.0000, 0.0000, 0.0000, 0.0000, 0.0000, -0.9448, -0.0504, -0.2577, 0.1958, 0.0176, -0.0033, -0.0040, 0.0000, 0.0000, 0.0000, 0.0000
0, 0.5350, 106, -0.4737, 0.2045, -0.8662, -0.2757, 0.3418, -0.2461, 0.0000, 0.0000, 0.0000, 0.0000, 0.0000, 0.0000, -0.9448, -0.0504, -0.2577, 0.1958, -0.0066, 0.0083, -0.0041, 0.0000, 0.0000, 0.0000, 0.0000
0, 0.5400, 107, -0.4777, 0.1966, -0.8700, -0.4017, -0.1491, -0.7091, 0.0000, 0.0000, 0.0000, 0.0000, 0.0000, 0.0000, -0.9448, -0.0503, -0.2578, 0.1958, -0.0103, 0.0007, -0.0079, 0.0000, 0.0000, 0.0000, 0.0000
0, 0.5500, 108, -0.4736, 0.1889, -0.8622, -0.6022, 0.0517, -0.5053, 0.0000, 0.0000, 0.0000, 0.0000, 0.0000, 0.0000, -0.9448, -0.0502, -0.2578, 0.1958, -0.0062, -0.0069, -0.0001, 0.0000, 0.0000, 0.0000, 0.0000
0, 0.5550, 109, -0.4778, 0.1887, -0.8737, 0.0549, -0.0094, -1.2654, 0.0000, 0.0000, 0.0000, 0.0000, 0.0000, 0.0000, -0.9449, -0.0502, -0.2577, 0.1957, -0.0104, -0.0070, -0.0116, 0.0000, 0.0000, 0.0000, 0.0000
0, 0.5600, 110, -0.4697, 0.2045, -0.8662, -0.0680, -0.4126, -0.9143, 0.0000, 0.0000, 0.0000, 0.0000, 0.0000, 0.0000, -0.9449, -0.0502, -0.2577, 0.1957, -0.0023, 0.0088, -0.0041, 0.0000, 0.0000, 0.0000, 0.0000
0, 0.5650, 111, -0.4658, 0.2044, -0.8739, -0.8021, 0.1087, -0.6385, 0.0000, 0.0000, 0.0000, 0.0000, 0.0000, 0.0000, -0.9448, -0.0502, -0.2578, 0.1957, 0.0017, 0.0087, -0.0118, 0.0000, 0.0000, 0.0000, 0.0000
0, 0.5700, 112, -0.4697, 0.1928, -0.8661, -0.5963, -0.2144, -0.2957, 0.0000, 0.0000, 0.0000, 0.0000, 0.0000, 0.0000, -0.9448, -0.0502, -0.2578, 0.1956, -0.0021, -0.0029, -0.0041, 0.0000, 0.0000, 0.0000, 0.0000
0, 0.5750, 113, -0.4820, 0.2002, -0.8854, -0.4692, 0.0616, -0.3042, 0.0000, 0.0000, 0.0000, 0.0000, 0.0000, 0.0000, -0.9449, -0.0502, -0.2578, 0.1956, -0.0145, 0.0045, -0.0233, 0.0000, 0.0000, 0.0000, 0.0000
0, 0.5800, 114, -0.4858, 0.2005, -0.8700, -0.0712, 0.0865, 0.0952, 0.0000, 0.0000, 0.0000, 0.0000, 0.0000, 0.0000, -0.9448, -0.0502, -0.2579, 0.1956, -0.0180, 0.0046, -0.0081, 0.0000, 0.0000, 0.0000, 0.0000
0, 0.5850, 115, -0.4577, 0.2046, -0.8624, -1.5184, -0.3880, -0.4093, 0.0000, 0.0000, 0.0000, 0.0000, 0.0000, 0.0000, -0.9448, -0.0503, -0.2580, 0.1956, 0.0101, 0.0087, -0.0005, 0.0000, 0.0000, 0.0000, 0.0000
0, 0.5900, 116, -0.4698, 0.1887, -0.8737, -0.5453, 0.6723, -0.1797, 0.0000, 0.0000, 0.0000, 0.0000, 0.0000, 0.0000, -0.9448, -0.0503, -0.2580, 0.1956, -0.0020, -0.0073, -0.0119, 0.0000, 0.0000, 0.0000, 0.0000
0, 0.5950, 117, -0.4618, 0.1926, -0.8776, -0.2687, -0.1391, -0.5080, 0.0000, 0.0000, 0.0000, 0.0000, 0.0000, 0.0000, -0.9449, -0.0503, -0.2578, 0.1956, 0.0057, -0.0032, -0.0156, 0.0000, 0.0000, 0.0000, 0.0000
0, 0.6000, 118, -0.4657, 0.1731, -0.8736, -0.4627, -0.1284, 0.2438, 0.0000, 0.0000, 0.0000, 0.0000, 0.0000, 0.0000, -0.9449, -0.0501, -0.2578, 0.1956, 0.0019, -0.0225, -0.0115, 0.0000, 0.0000, 0.0000, 0.0000
0, 0.6050, 119, -0.4737, 0.2006, -0.8662, 0.1249, 0.1584, -0.0463, 0.0000, 0.0000, 0.0000, 0.0000, 0.0000, 0.0000, -0.9449, -0.0502, -0.2579, 0.1956, -0.0061, 0.0049, -0.0042, 0.0000, 0.0000, 0.0000, 0.0000
0, 0.6100, 120, -0.4737, 0.1888, -0.8699, -0.3349, 0.0038, -0.1017, 0.0000, 0.0000, 0.0000, 0.0000, 0.0000, 0.0000, -0.9449, -0.0502, -0.2578, 0.1956, -0.0062, -0.0069, -0.0078, 0.0000, 0.0000, 0.0000, 0.0000
0, 0.6150, 121, -0.4696, 0.1929, -0.8622, -0.1325, -0.2614, -0.1681, 0.0000, 0.0000, 0.0000, 0.0000, 0.0000, 0.0000, -0.9449, -0.0502, -0.2578, 0.1955, -0.0020, -0.0029, -0.0002, 0.0000, 0.0000, 0.0000, 0.0000
0, 0.6200, 122, -0.4738, 0.1886, -0.8776, -1.2654, 0.3045, -0.2252, 0.0000, 0.0000, 0.0000, 0.0000, 0.0000, 0.0000, -0.9448, -0.0502, -0.2579, 0.1955, -0.0061, -0.0071, -0.0156, 0.0000, 0.0000, 0.0000, 0.0000
0, 0.6250, 123, -0.4617, 0.2046, -0.8662, -0.2631, -0.2597, 0.1065, 0.0000, 0.0000, 0.0000, 0.0000, 0.0000, 0.0000, -0.9449, -0.0503, -0.2578, 0.1955, 0.0059, 0.0087, -0.0042, 0.0000, 0.0000, 0.0000, 0.0000
0, 0.6300, 124, -0.4776, 0.1968, -0.8584, -0.0064, 0.0096, -0.3805, 0.0000, 0.0000, 0.0000, 0.0000, 0.0000, 0.0000, -0.9448, -0.0503, -0.2580, 0.1955, -0.0098, 0.0010, 0.0034, 0.0000, 0.0000, 0.0000, 0.0000
0, 0.6350, 125, -0.4656, 0.2126, -0.8547, -0.6625, -0.1441, -0.0919, 0.0000, 0.0000, 0.0000, 0.0000, 0.0000, 0.0000, -0.9448, -0.0505, -0.2579, 0.1955, 0.0021, 0.0164, 0.0071, 0.0000, 0.0000, 0.0000, 0.0000
0, 0.6400, 126, -0.4737, 0.2085, -0.8624, -0.3298, -0.4126, -0.5009, 0.0000, 0.0000, 0.0000, 0.0000, 0.0000, 0.0000, -0.9448, -0.0506, -0.2580, 0.1955, -0.0059, 0.0120, -0.0006, 0.0000, 0.0000, 0.0000, 0.0000
0, 0.6450, 127, -0.4580, 0.2042, -0.8854, -0.1371, 0.0840, 0.0966, 0.0000, 0.0000, 0.0000, 0.0000, 0.0000, 0.0000, -0.9449, -0.0506, -0.2578, 0.1955, 0.0093, 0.0078, -0.0234, 0.0000, 0.0000, 0.0000, 0.0000
0, 0.6500, 128, -0.4537, 0.1928, -0.8661, 0.1295, -0.1870, -0.3110, 0.0000, 0.0000, 0.0000, 0.0000, 0.0000, 0.0000, -0.9449, -0.0506, -0.2577, 0.1955, 0.0135, -0.0035, -0.0040, 0.0000, 0.0000, 0.0000, 0.0000
0, 0.6550, 129, -0.4778, 0.1965, -0.8738, -0.2057, -0.0772, -0.8506, 0.0000, 0.0000, 0.0000, 0.0000, 0.0000, 0.0000, -0.9449, -0.0505, -0.2577, 0.1955, -0.0106, 0.0003, -0.0117, 0.0000, 0.0000, 0.0000, 0.0000
0, 0.6600, 130, -0.4737, 0.1928, -0.8661, -0.4672, 0.1443, 0.3060, 0.0000, 0.0000, 0.0000, 0.0000, 0.0000, 0.0000, -0.9449, -0.0505, -0.2577, 0.1955, -0.0064, -0.0035, -0.0040, 0.0000, 0.0000, 0.0000, 0.0000
0, 0.6650, 131, -0.4656, 0.1968, -0.8623, -0.5434, 0.4607, -0.5152, 0.0000, 0.0000, 0.0000, 0.0000, 0.0000, 0.0000, -0.9449, -0.0506, -0.2577, 0.1955, 0.0016, 0.0004, -0.0002, 0.0000, 0.0000, 0.0000, 0.0000
0, 0.6700, 132, -0.4658, 0.1966, -0.8738, 0.2550, 0.0080, -0.8618, 0.0000, 0.0000, 0.0000, 0.0000, 0.0000, 0.0000, -0.9449, -0.0505, -0.2577, 0.1954, 0.0014, 0.0003, -0.0117, 0.0000, 0.0000, 0.0000, 0.0000
0, 0.6750, 133, -0.4778, 0.2004, -0.8738, -0.0678, -0.1911, -0.1709, 0.0000, 0.0000, 0.0000, 0.0000, 0.0000, 0.0000, -0.9449, -0.0504, -0.2577, 0.1954, -0.0106, 0.0044, -0.0117, 0.0000, 0.0000, 0.0000, 0.0000
0, 0.6800, 134, -0.4778, 0.2044, -0.8700, 0.1299, -0.4051, -0.9184, 0.0000, 0.0000, 0.0000, 0.0000, 0.0000, 0.0000, -0.9449, -0.0504, -0.2577, 0.1954, -0.0104, 0.0085, -0.0079, 0.0000, 0.0000, 0.0000, 0.0000
0, 0.6900, 135, -0.4617, 0.2006, -0.8662, -0.5399, 0.1104, -0.9839, 0.0000, 0.0000, 0.0000, 0.0000, 0.0000, 0.0000, -0.9449, -0.0505, -0.2577, 0.1953, 0.0056, 0.0046, -0.0040, 0.0000, 0.0000, 0.0000, 0.0000
0, 0.6950, 136, -0.4696, 0.1929, -0.8584, -0.2646, -0.4135, -0.6382, 0.0000, 0.0000, 0.0000, 0.0000, 0.0000, 0.0000, -0.9449, -0.0505, -0.2577, 0.1953, -0.0023, -0.0032, 0.0037, 0.0000, 0.0000, 0.0000, 0.0000
0, 0.7000, 137, -0.4738, 0.2044, -0.8700, -0.4622, -0.4193, -0.5661, 0.0000, 0.0000, 0.0000, 0.0000, 0.0000, 0.0000, -0.9449, -0.0505, -0.2577, 0.1953, -0.0064, 0.0083, -0.0080, 0.0000, 0.0000, 0.0000, 0.0000
0, 0.7050, 138, -0.4577, 0.1928, -0.8661, -0.1352, -0.2002, -0.4414, 0.0000, 0.0000, 0.0000, 0.0000, 0.0000, 0.0000, -0.9449, -0.0505, -0.2577, 0.1953, 0.0096, -0.0032, -0.0040, 0.0000, 0.0000, 0.0000, 0.0000
0, 0.7150, 139, -0.4580, 0.2082, -0.8816, -0.4666, -0.1466, -0.5038, 0.0000, 0.0000, 0.0000, 0.0000, 0.0000, 0.0000, -0.9449, -0.0505, -0.2577, 0.1952, 0.0093, 0.0120, -0.0195, 0.0000, 0.0000, 0.0000, 0.0000
0, 0.7200, 140, -0.4619, 0.1925, -0.8814, 0.1402, -0.7241, -0.0958, 0.0000, 0.0000, 0.0000, 0.0000, 0.0000, 0.0000, -0.9450, -0.0505, -0.2577, 0.1952, 0.0054, -0.0035, -0.0193, 0.0000, 0.0000, 0.0000, 0.0000
0, 0.7250, 141, -0.4939, 0.2041, -0.8816, 0.0709, -0.6687, -0.5036, 0.0000, 0.0000, 0.0000, 0.0000, 0.0000, 0.0000, -0.9449, -0.0505, -0.2577, 0.1952, -0.0265, 0.0082, -0.0195, 0.0000, 0.0000, 0.0000, 0.0000
0, 0.7300, 142, -0.4818, 0.2043, -0.8739, 0.2694, -0.5852, -0.1694, 0.0000, 0.0000, 0.0000, 0.0000, 0.0000, 0.0000, -0.9449, -0.0504, -0.2578, 0.1952, -0.0142, 0.0084, -0.0119, 0.0000, 0.0000, 0.0000, 0.0000
0, 0.7350, 143, -0.4775, 0.1930, -0.8545, -0.0624, -0.5332, -0.2997, 0.0000, 0.0000, 0.0000, 0.0000, 0.0000, 0.0000, -0.9449, -0.0503, -0.2580, 0.1952, -0.0096, -0.0028, 0.0073, 0.0000, 0.0000, 0.0000, 0.0000
0, 0.7400, 144, -0.4656, 0.1969, -0.8584, -0.3325, -0.3515, -0.7742, 0.0000, 0.0000, 0.0000, 0.0000, 0.0000, 0.0000, -0.9449, -0.0502, -0.2581, 0.1951, 0.0027, 0.0012, 0.0033, 0.0000, 0.0000, 0.0000, 0.0000
0, 0.7450, 145, -0.4775, 0.2008, -0.8546, 0.3240, 0.0981, -0.0491, 0.0000, 0.0000, 0.0000, 0.0000, 0.0000, 0.0000, -0.9448, -0.0502, -0.2583, 0.1951, -0.0091, 0.0051, 0.0069, 0.0000, 0.0000, 0.0000, 0.0000
0, 0.7500, 146, -0.4696, 0.1850, -0.8660, 0.0475, 0.6897, -0.3961, 0.0000, 0.0000, 0.0000, 0.0000, 0.0000, 0.0000, -0.9448, -0.0500, -0.2583, 0.1951, -0.0011, -0.0103, -0.0044, 0.0000, 0.0000, 0.0000, 0.0000
0, 0.7550, 147, -0.4737, 0.1966, -0.8700, -0.1372, -0.0631, -0.3763, 0.0000, 0.0000, 0.0000, 0.0000, 0.0000, 0.0000, -0.9449, -0.0500, -0.2583, 0.1950, -0.0051, 0.0014, -0.0084, 0.0000, 0.0000, 0.0000, 0.0000
0, 0.7600, 148, -0.4696, 0.1850, -0.8660, -0.0863, 0.8962, -0.0578, 0.0000, 0.0000, 0.0000, 0.0000, 0.0000, 0.0000, -0.9449, -0.0500, -0.2582, 0.1950, -0.0012, -0.0102, -0.0043, 0.0000, 0.0000, 0.0000, 0.0000
0, 0.7650, 149, -0.4738, 0.2005, -0.8700, -0.2142, 0.6169, -0.1852, 0.0000, 0.0000, 0.0000, 0.0000, 0.0000, 0.0000, -0.9449, -0.0499, -0.2582, 0.1950, -0.0053, 0.0055, -0.0083, 0.0000, 0.0000, 0.0000, 0.0000
0, 0.7700, 150, -0.4737, 0.1927, -0.8699, 0.0538, 0.5724, 0.3543, 0.0000, 0.0000, 0.0000, 0.0000, 0.0000, 0.0000, -0.9449, -0.0499, -0.2581, 0.1950, -0.0053, -0.0023, -0.0082, 0.0000, 0.0000, 0.0000, 0.0000
0, 0.7750, 151, -0.4578, 0.1927, -0.8738, -0.6007, 0.2054, 0.2394, 0.0000, 0.0000, 0.0000, 0.0000, 0.0000, 0.0000, -0.9449, -0.0498, -0.2581, 0.1950, 0.0105, -0.0021, -0.0119, 0.0000, 0.0000, 0.0000, 0.0000
0, 0.7800, 152, -0.4696, 0.1850, -0.8660, -0.5396, 0.4789, 0.2324, 0.0000, 0.0000, 0.0000, 0.0000, 0.0000, 0.0000, -0.9449, -0.0498, -0.2580, 0.1950, -0.0014, -0.0098, -0.0041, 0.0000, 0.0000, 0.0000, 0.0000
0, 0.7850, 153, -0.4777, 0.1849, -0.8698, -0.5332, -0.0053, -0.1655, 0.0000, 0.0000, 0.0000, 0.0000, 0.0000, 0.0000, -0.9450, -0.0497, -0.2580, 0.1949, -0.0094, -0.0098, -0.0079, 0.0000, 0.0000, 0.0000, 0.0000
0, 0.7900, 154, -0.4739, 0.2003, -0.8815, -1.3352, 0.4309, -0.4985, 0.0000, 0.0000, 0.0000, 0.0000, 0.0000, 0.0000, -0.9450, -0.0498, -0.2580, 0.1949, -0.0057, 0.0057, -0.0196, 0.0000, 0.0000, 0.0000, 0.0000
0, 0.7950, 155, -0.4779, 0.2082, -0.8778, -0.3360, -0.0011, -0.3056, 0.0000, 0.0000, 0.0000, 0.0000, 0.0000, 0.0000, -0.9450, -0.0498, -0.2580, 0.1949, -0.0098, 0.0135, -0.0158, 0.0000, 0.0000, 0.0000, 0.0000
0, 0.8000, 156, -0.4738, 0.1925, -0.8776, -0.7191, -0.5432, 0.3258, 0.0000, 0.0000, 0.0000, 0.0000, 0.0000, 0.0000, -0.9450, -0.0499, -0.2580, 0.1949, -0.0057, -0.0023, -0.0157, 0.0000, 0.0000, 0.0000, 0.0000
0, 0.8050, 157, -0.4655, 0.2009, -0.8546, -0.8597, -0.1483, 0.0482, 0.0000, 0.0000, 0.0000, 0.0000, 0.0000, 0.0000, -0.9449, -0.0499, -0.2581, 0.1949, 0.0027, 0.0060, 0.0072, 0.0000, 0.0000, 0.0000, 0.0000
0, 0.8100, 158, -0.4738, 0.2044, -0.8739, -0.5365, 0.1996, -0.1018, 0.0000, 0.0000, 0.0000, 0.0000, 0.0000, 0.0000, -0.9450, -0.0500, -0.2580, 0.1949, -0.0057, 0.0093, -0.0120, 0.0000, 0.0000, 0.0000, 0.0000
0, 0.8150, 159, -0.4697, 0.2006, -0.8662, -0.6622, -0.0698, 0.1786, 0.0000, 0.0000, 0.0000, 0.0000, 0.0000, 0.0000, -0.9450, -0.0501, -0.2580, 0.1949, -0.0016, 0.0054, -0.0043, 0.0000, 0.0000, 0.0000, 0.0000
0, 0.8200, 160, -0.4778, 0.2044, -0.8700, -0.4058, 0.1253, -0.5789, 0.0000, 0.0000, 0.0000, 0.0000, 0.0000, 0.0000, -0.9449, -0.0501, -0.2581, 0.1949, -0.0096, 0.0091, -0.0083, 0.0000, 0.0000, 0.0000, 0.0000
0, 0.8250, 161, -0.4776, 0.2007, -0.8623, -0.9302, -0.0252, -0.3610, 0.0000, 0.0000, 0.0000, 0.0000, 0.0000, 0.0000, -0.9449, -0.0502, -0.2581, 0.1948, -0.0095, 0.0052, -0.0006, 0.0000, 0.0000, 0.0000, 0.0000
0, 0.8300, 162, -0.4659, 0.2004, -0.8777, -0.2047, 0.1476, 0.0286, 0.0000, 0.0000, 0.0000, 0.0000, 0.0000, 0.0000, -0.9450, -0.0503, -0.2579, 0.1948, 0.0020, 0.0049, -0.0158, 0.0000, 0.0000, 0.0000, 0.0000
0, 0.8350, 163, -0.4776, 0.2007, -0.8623, -0.4730, 0.1905, -0.5789, 0.0000, 0.0000, 0.0000, 0.0000, 0.0000, 0.0000, -0.9450, -0.0503, -0.2580, 0.1948, -0.0097, 0.0051, -0.0005, 0.0000, 0.0000, 0.0000, 0.0000
0, 0.8400, 164, -0.4736, 0.1968, -0.8584, -0.0724, 0.0072, -0.3791, 0.0000, 0.0000, 0.0000, 0.0000, 0.0000, 0.0000, -0.9450, -0.0503, -0.2580, 0.1948, -0.0055, 0.0012, 0.0033, 0.0000, 0.0000, 0.0000, 0.0000
0, 0.8450, 165, -0.4776, 0.1889, -0.8622, -0.4730, 0.1905, -0.5789, 0.0000, 0.0000, 0.0000, 0.0000, 0.0000, 0.0000, -0.9449, -0.0503, -0.2581, 0.1948, -0.0094, -0.0067, -0.0005, 0.0000, 0.0000, 0.0000, 0.0000
0, 0.8500, 166, -0.4817, 0.2085, -0.8624, -0.0641, -0.2473, 0.3062, 0.0000, 0.0000, 0.0000, 0.0000, 0.0000, 0.0000, -0.9449, -0.0503, -0.2582, 0.1948, -0.0133, 0.0128, -0.0008, 0.0000, 0.0000, 0.0000, 0.0000
0, 0.8550, 167, -0.4579, 0.2004, -0.8777, -0.6009, 0.1310, -0.0310, 0.0000, 0.0000, 0.0000, 0.0000, 0.0000, 0.0000, -0.9449, -0.0504, -0.2582, 0.1948, 0.0104, 0.0046, -0.0161, 0.0000, 0.0000, 0.0000, 0.0000
0, 0.8600, 168, -0.4777, 0.1888, -0.8699, -0.5284, -0.1292, 0.3131, 0.0000, 0.0000, 0.0000, 0.0000, 0.0000, 0.0000, -0.9449, -0.0504, -0.2582, 0.1948, -0.0094, -0.0070, -0.0083, 0.0000, 0.0000, 0.0000, 0.0000
0, 0.8650, 169, -0.4658, 0.1769, -0.8774, -1.1872, -0.2962, 0.0580, 0.0000, 0.0000, 0.0000, 0.0000, 0.0000, 0.0000, -0.9449, -0.0503, -0.2582, 0.1948, 0.0025, -0.0187, -0.0158, 0.0000, 0.0000, 0.0000, 0.0000
0, 0.8750, 170, -0.4819, 0.1964, -0.8776, -0.4738, 0.4070, -0.0395, 0.0000, 0.0000, 0.0000, 0.0000, 0.0000, 0.0000, -0.9449, -0.0502, -0.2582, 0.1947, -0.0135, 0.0010, -0.0160, 0.0000, 0.0000, 0.0000, 0.0000
0, 0.8800, 171, -0.4698, 0.2005, -0.8700, -1.1182, -0.5730, -0.2775, 0.0000, 0.0000, 0.0000, 0.0000, 0.0000, 0.0000, -0.9449, -0.0503, -0.2582, 0.1947, -0.0014, 0.0050, -0.0084, 0.0000, 0.0000, 0.0000, 0.0000
0, 0.8850, 172, -0.4816, 0.2007, -0.8585, -1.5830, -0.5310, -0.6090, 0.0000, 0.0000, 0.0000, 0.0000, 0.0000, 0.0000, -0.9449, -0.0503, -0.2582, 0.1947, -0.0132, 0.0051, 0.0031, 0.0000, 0.0000, 0.0000, 0.0000
0, 0.8900, 173, -0.4777, 0.1966, -0.8700, -0.7294, -0.0045, 0.1785, 0.0000, 0.0000, 0.0000, 0.0000, 0.0000, 0.0000, -0.9449, -0.0504, -0.2583, 0.1947, -0.0092, 0.0009, -0.0084, 0.0000, 0.0000, 0.0000, 0.0000
0, 0.8950, 174, -0.4658, 0.2005, -0.8738, -0.1319, -0.4052, -0.5051, 0.0000, 0.0000, 0.0000, 0.0000, 0.0000, 0.0000, -0.9449, -0.0504, -0.2582, 0.1946, 0.0026, 0.0047, -0.0123, 0.0000, 0.0000, 0.0000, 0.0000
0, 0.9000, 175, -0.4658, 0.2124, -0.8663, -0.9291, -0.0202, -0.1571, 0.0000, 0.0000, 0.0000, 0.0000, 0.0000, 0.0000, -0.9449, -0.0505, -0.2582, 0.1946, 0.0026, 0.0164, -0.0047, 0.0000, 0.0000, 0.0000, 0.0000
0, 0.9050, 176, -0.4736, 0.1849, -0.8660, -0.7307, -0.0838, -0.2958, 0.0000, 0.0000, 0.0000, 0.0000, 0.0000, 0.0000, -0.9450, -0.0505, -0.2581, 0.1946, -0.0054, -0.0110, -0.0044, 0.0000, 0.0000, 0.0000, 0.0000
0, 0.9100, 177, -0.4617, 0.2085, -0.8662, -0.4668, -0.0739, -0.3014, 0.0000, 0.0000, 0.0000, 0.0000, 0.0000, 0.0000, -0.9450, -0.0506, -0.2582, 0.1946, 0.0065, 0.0124, -0.0046, 0.0000, 0.0000, 0.0000, 0.0000
0, 0.9150, 178, -0.4737, 0.1928, -0.8661, -0.9172, -0.4780, 0.5325, 0.0000, 0.0000, 0.0000, 0.0000, 0.0000, 0.0000, -0.9450, -0.0506, -0.2581, 0.1946, -0.0056, -0.0034, -0.0044, 0.0000, 0.0000, 0.0000, 0.0000
0, 0.9200, 179, -0.4817, 0.1966, -0.8700, -0.3335, -0.2094, -0.5052, 0.0000, 0.0000, 0.0000, 0.0000, 0.0000, 0.0000, -0.9450, -0.0506, -0.2581, 0.1946, -0.0136, 0.0005, -0.0083, 0.0000, 0.0000, 0.0000, 0.0000
0, 0.9250, 180, -0.4701, 0.1962, -0.8930, -0.6625, -0.2912, -0.5648, 0.0000, 0.0000, 0.0000, 0.0000, 0.0000, 0.0000, -0.9450, -0.0506, -0.2581, 0.1946, -0.0019, 0.0001, -0.0314, 0.0000, 0.0000, 0.0000, 0.0000
0, 0.9300, 181, -0.4735, 0.1890, -0.8583, -1.1980, -0.0533, -1.1030, 0.0000, 0.0000, 0.0000, 0.0000, 0.0000, 0.0000, -0.9450, -0.0507, -0.2581, 0.1945, -0.0054, -0.0071, 0.0033, 0.0000, 0.0000, 0.0000, 0.0000
0, 0.9350, 182, -0.4777, 0.1928, -0.8661, -0.2655, -0.1242, 0.1037, 0.0000, 0.0000, 0.0000, 0.0000, 0.0000, 0.0000, -0.9450, -0.0506, -0.2582, 0.1945, -0.0094, -0.0033, -0.0045, 0.0000, 0.0000, 0.0000, 0.0000
0, 0.9400, 183, -0.4695, 0.2087, -0.8509, -0.3178, -0.7233, 0.6616, 0.0000, 0.0000, 0.0000, 0.0000, 0.0000, 0.0000, -0.9449, -0.0506, -0.2582, 0.1945, -0.0012, 0.0126, 0.0106, 0.0000, 0.0000, 0.0000, 0.0000
0, 0.9450, 184, -0.4737, 0.1809, -0.8736, -0.9924, -0.1566, -0.0849, 0.0000, 0.0000, 0.0000, 0.0000, 0.0000, 0.0000, -0.9449, -0.0506, -0.2582, 0.1945, -0.0054, -0.0152, -0.0121, 0.0000, 0.0000, 0.0000, 0.0000
0, 0.9500, 185, -0.4738, 0.2005, -0.8700, -0.9297, -0.0963, -0.4955, 0.0000, 0.0000, 0.0000, 0.0000, 0.0000, 0.0000, -0.9449, -0.0507, -0.2583, 0.1945, -0.0054, 0.0043, -0.0085, 0.0000, 0.0000, 0.0000, 0.0000
0, 0.9550, 186, -0.4697, 0.1967, -0.8661, -0.9941, -0.1648, -0.4247, 0.0000, 0.0000, 0.0000, 0.0000, 0.0000, 0.0000, -0.9449, -0.0507, -0.2583, 0.1944, -0.0013, 0.0005, -0.0047, 0.0000, 0.0000, 0.0000, 0.0000
0, 0.9600, 187, -0.4777, 0.1848, -0.8737, -0.5333, -0.1524, -0.6384, 0.0000, 0.0000, 0.0000, 0.0000, 0.0000, 0.0000, -0.9449, -0.0507, -0.2583, 0.1944, -0.0093, -0.0114, -0.0123, 0.0000, 0.0000, 0.0000, 0.0000
0, 0.9650, 188, -0.4736, 0.2007, -0.8623, -0.4693, 0.1344, -0.1017, 0.0000, 0.0000, 0.0000, 0.0000, 0.0000, 0.0000, -0.9449, -0.0507, -0.2584, 0.1944, -0.0051, 0.0043, -0.0010, 0.0000, 0.0000, 0.0000, 0.0000
0, 0.9750, 189, -0.4778, 0.2005, -0.8700, -0.2683, 0.0096, 0.0329, 0.0000, 0.0000, 0.0000, 0.0000, 0.0000, 0.0000, -0.9449, -0.0510, -0.2584, 0.1944, -0.0093, 0.0037, -0.0087, 0.0000, 0.0000, 0.0000, 0.0000
0, 0.9800, 190, -0.4737, 0.2006, -0.8662, -0.4764, 0.4682, -0.3127, 0.0000, 0.0000, 0.0000, 0.0000, 0.0000, 0.0000, -0.9449, -0.0510, -0.2584, 0.1944, -0.0052, 0.0038, -0.0049, 0.0000, 0.0000, 0.0000, 0.0000
0, 0.9850, 191, -0.4698, 0.2005, -0.8738, -0.2714, 0.1418, -0.1059, 0.0000, 0.0000, 0.0000, 0.0000, 0.0000, 0.0000, -0.9449, -0.0510, -0.2584, 0.1944, -0.0013, 0.0036, -0.0126, 0.0000, 0.0000, 0.0000, 0.0000
0, 0.9900, 192, -0.4697, 0.2006, -0.8662, -0.5932, -0.3466, -0.1569, 0.0000, 0.0000, 0.0000, 0.0000, 0.0000, 0.0000, -0.9449, -0.0509, -0.2584, 0.1944, -0.0013, 0.0039, -0.0048, 0.0000, 0.0000, 0.0000, 0.0000
0, 0.9950, 193, -0.4740, 0.1962, -0.8892, -1.2001, 0.0838, -1.0379, 0.0000, 0.0000, 0.0000, 0.0000, 0.0000, 0.0000, -0.9449, -0.0510, -0.2584, 0.1944, -0.0056, -0.0005, -0.0279, 0.0000, 0.0000, 0.0000, 0.0000
0, 1.0000, 194, -0.4737, 0.1927, -0.8699, -1.2601, -0.0376, -0.3540, 0.0000, 0.0000, 0.0000, 0.0000, 0.0000, 0.0000, -0.9449, -0.0510, -0.2584, 0.1943, -0.0053, -0.0041, -0.0086, 0.0000, 0.0000, 0.0000, 0.0000
0, 1.0050, 195, -0.4778, 0.2005, -0.8700, -0.2674, -0.0598, -0.0337, 0.0000, 0.0000, 0.0000, 0.0000, 0.0000, 0.0000, -0.9449, -0.0510, -0.2584, 0.1943, -0.0091, 0.0038, -0.0088, 0.0000, 0.0000, 0.0000, 0.0000
0, 1.0100, 196, -0.4736, 0.1968, -0.8623, -1.1970, -0.0484, -0.8991, 0.0000, 0.0000, 0.0000, 0.0000, 0.0000, 0.0000, -0.9449, -0.0510, -0.2585, 0.1943, -0.0050, -0.0001, -0.0011, 0.0000, 0.0000, 0.0000, 0.0000
0, 1.0150, 197, -0.4897, 0.2005, -0.8662, -0.5354, -0.0152, -0.5732, 0.0000, 0.0000, 0.0000, 0.0000, 0.0000, 0.0000, -0.9449, -0.0510, -0.2586, 0.1942, -0.0209, 0.0037, -0.0051, 0.0000, 0.0000, 0.0000, 0.0000
0, 1.0200, 198, -0.4657, 0.1928, -0.8661, -0.9272, 0.0624, 0.4531, 0.0000, 0.0000, 0.0000, 0.0000, 0.0000, 0.0000, -0.9449, -0.0510, -0.2585, 0.1942, 0.0029, -0.0041, -0.0049, 0.0000, 0.0000, 0.0000, 0.0000
0, 1.0250, 199, -0.4579, 0.1965, -0.8776, -0.9316, 0.1153, -0.1599, 0.0000, 0.0000, 0.0000, 0.0000, 0.0000, 0.0000, -0.9449, -0.0512, -0.2584, 0.1942, 0.0106, -0.0005, -0.0164, 0.0000, 0.0000, 0.0000, 0.0000
0, 1.0300, 200, -0.4818, 0.2044, -0.8700, -0.9936, -0.2359, -0.5592, 0.0000, 0.0000, 0.0000, 0.0000, 0.0000, 0.0000, -0.9449, -0.0512, -0.2585, 0.1942, -0.0132, 0.0072, -0.0089, 0.0000, 0.0000, 0.0000, 0.0000
0, 1.0350, 201, -0.4616, 0.1968, -0.8623, -1.0020, 0.3855, -0.0963, 0.0000, 0.0000, 0.0000, 0.0000, 0.0000, 0.0000, -0.9449, -0.0513, -0.2584, 0.1942, 0.0068, -0.0005, -0.0011, 0.0000, 0.0000, 0.0000, 0.0000
0, 1.0400, 202, -0.4695, 0.1890, -0.8583, -0.8000, -0.0285, -0.7036, 0.0000, 0.0000, 0.0000, 0.0000, 0.0000, 0.0000, -0.9449, -0.0513, -0.2584, 0.1941, -0.0011, -0.0083, 0.0028, 0.0000, 0.0000, 0.0000, 0.0000
0, 1.0450, 203, -0.4697, 0.2045, -0.8662, -0.7300, -0.0805, -0.1599, 0.0000, 0.0000, 0.0000, 0.0000, 0.0000, 0.0000, -0.9449, -0.0514, -0.2584, 0.1941, -0.0013, 0.0071, -0.0050, 0.0000, 0.0000, 0.0000, 0.0000
0, 1.0500, 204, -0.4736, 0.2007, -0.8623, -0.8538, -0.4143, 0.2578, 0.0000, 0.0000, 0.0000, 0.0000, 0.0000, 0.0000, -0.9449, -0.0514, -0.2584, 0.1941, -0.0053, 0.0032, -0.0011, 0.0000, 0.0000, 0.0000, 0.0000
0, 1.0550, 205, -0.4696, 0.2008, -0.8585, -0.4565, -0.3928, 0.5213, 0.0000, 0.0000, 0.0000, 0.0000, 0.0000, 0.0000, -0.9449, -0.0515, -0.2584, 0.1941, -0.0012, 0.0031, 0.0027, 0.0000, 0.0000, 0.0000, 0.0000
0, 1.0600, 206, -0.4657, 0.2045, -0.8662, -0.7953, -0.2268, -0.4954, 0.0000, 0.0000, 0.0000, 0.0000, 0.0000, 0.0000, -0.9449, -0.0515, -0.2585, 0.1941, 0.0027, 0.0068, -0.0051, 0.0000, 0.0000, 0.0000, 0.0000
0, 1.0650, 207, -0.4735, 0.1969, -0.8546, -0.1988, -0.1184, 0.2382, 0.0000, 0.0000, 0.0000, 0.0000, 0.0000, 0.0000, -0.9449, -0.0515, -0.2585, 0.1941, -0.0050, -0.0008, 0.0064, 0.0000, 0.0000, 0.0000, 0.0000
0, 1.0700, 208, -0.4779, 0.1964, -0.8815, -0.8679, 0.0335, -0.8395, 0.0000, 0.0000, 0.0000, 0.0000, 0.0000, 0.0000, -0.9449, -0.0515, -0.2585, 0.1941, -0.0093, -0.0014, -0.0205, 0.0000, 0.0000, 0.0000, 0.0000
0, 1.0750, 209, -0.4657, 0.2124, -0.8624, -0.8668, 0.0384, -0.6357, 0.0000, 0.0000, 0.0000, 0.0000, 0.0000, 0.0000, -0.9449, -0.0516, -0.2585, 0.1941, 0.0028, 0.0145, -0.0014, 0.0000, 0.0000, 0.0000, 0.0000
0, 1.0800, 210, -0.4657, 0.1888, -0.8699, -0.3344, -0.0672, -0.2362, 0.0000, 0.0000, 0.0000, 0.0000, 0.0000, 0.0000, -0.9449, -0.0516, -0.2585, 0.1940, 0.0028, -0.0090, -0.0088, 0.0000, 0.0000, 0.0000, 0.0000
0, 1.0850, 211, -0.4817, 0.1888, -0.8660, -0.2655, -0.1242, 0.1037, 0.0000, 0.0000, 0.0000, 0.0000, 0.0000, 0.0000, -0.9449, -0.0515, -0.2586, 0.1940, -0.0130, -0.0087, -0.0050, 0.0000, 0.0000, 0.0000, 0.0000
0, 1.0900, 212, -0.4618, 0.2045, -0.8700, -0.4797, 0.5260, -0.7219, 0.0000, 0.0000, 0.0000, 0.0000, 0.0000, 0.0000, -0.9449, -0.0515, -0.2585, 0.1940, 0.0068, 0.0069, -0.0090, 0.0000, 0.0000, 0.0000, 0.0000
0, 1.0950, 213, -0.4818, 0.1886, -0.8776, -0.8636, -0.1665, -0.6994, 0.0000, 0.0000, 0.0000, 0.0000, 0.0000, 0.0000, -0.9449, -0.0515, -0.2585, 0.1940, -0.0133, -0.0090, -0.0165, 0.0000, 0.0000, 0.0000, 0.0000
0, 1.1000, 214, -0.4617, 0.1889, -0.8660, -0.7311, -0.0855, -0.3637, 0.0000, 0.0000, 0.0000, 0.0000, 0.0000, 0.0000, -0.9449, -0.0515, -0.2585, 0.1939, 0.0069, -0.0087, -0.0050, 0.0000, 0.0000, 0.0000, 0.0000
0, 1.1050, 215, -0.4700, 0.2042, -0.8854, -0.2764, 0.3385, -0.3820, 0.0000, 0.0000, 0.0000, 0.0000, 0.0000, 0.0000, -0.9450, -0.0515, -0.2584, 0.1939, -0.0016, 0.0066, -0.0243, 0.0000, 0.0000, 0.0000, 0.0000
0, 1.1100, 216, -0.4738, 0.2044, -0.8739, -0.5417, 0.3219, -0.6483, 0.0000, 0.0000, 0.0000, 0.0000, 0.0000, 0.0000, -0.9450, -0.0516, -0.2584, 0.1939, -0.0055, 0.0067, -0.0127, 0.0000, 0.0000, 0.0000, 0.0000
0, 1.1150, 217, -0.4859, 0.2082, -0.8778, -0.2063, 0.0666, -0.5137, 0.0000, 0.0000, 0.0000, 0.0000, 0.0000, 0.0000, -0.9450, -0.0516, -0.2584, 0.1939, -0.0176, 0.0105, -0.0166, 0.0000, 0.0000, 0.0000, 0.0000
0, 1.1200, 218, -0.4697, 0.2124, -0.8624, -1.3990, 0.3656, -0.2918, 0.0000, 0.0000, 0.0000, 0.0000, 0.0000, 0.0000, -0.9450, -0.0516, -0.2584, 0.1939, -0.0013, 0.0146, -0.0013, 0.0000, 0.0000, 0.0000, 0.0000
0, 1.1250, 219, -0.4699, 0.2003, -0.8815, -0.4759, 0.3971, -0.4472, 0.0000, 0.0000, 0.0000, 0.0000, 0.0000, 0.0000, -0.9450, -0.0517, -0.2584, 0.1939, -0.0016, 0.0025, -0.0204, 0.0000, 0.0000, 0.0000, 0.0000
0, 1.1300, 220, -0.4698, 0.2124, -0.8663, -0.3412, 0.2682, -0.3792, 0.0000, 0.0000, 0.0000, 0.0000, 0.0000, 0.0000, -0.9450, -0.0518, -0.2583, 0.1938, -0.0016, 0.0144, -0.0051, 0.0000, 0.0000, 0.0000, 0.0000
0, 1.1350, 221, -0.4658, 0.1966, -0.8738, -0.4729, 0.1178, -0.7814, 0.0000, 0.0000, 0.0000, 0.0000, 0.0000, 0.0000, -0.9450, -0.0519, -0.2583, 0.1938, 0.0022, -0.0017, -0.0126, 0.0000, 0.0000, 0.0000, 0.0000
0, 1.1400, 222, -0.4658, 0.2084, -0.8701, -0.3991, -0.2102, -0.4358, 0.0000, 0.0000, 0.0000, 0.0000, 0.0000, 0.0000, -0.9450, -0.0519, -0.2582, 0.1938, 0.0021, 0.0101, -0.0088, 0.0000, 0.0000, 0.0000, 0.0000
0, 1.1450, 223, -0.4579, 0.2123, -0.8740, -0.5900, -0.5515, -0.2206, 0.0000, 0.0000, 0.0000, 0.0000, 0.0000, 0.0000, -0.9450, -0.0521, -0.2582, 0.1938, 0.0100, 0.0137, -0.0127, 0.0000, 0.0000, 0.0000, 0.0000
0, 1.1500, 224, -0.4657, 0.2046, -0.8624, -0.2712, 0.0691, -0.3084, 0.0000, 0.0000, 0.0000, 0.0000, 0.0000, 0.0000, -0.9450, -0.0522, -0.2582, 0.1938, 0.0021, 0.0059, -0.0011, 0.0000, 0.0000, 0.0000, 0.0000
0, 1.1600, 225, -0.4659, 0.1886, -0.8814, -0.0737, -0.0722, -0.8534, 0.0000, 0.0000, 0.0000, 0.0000, 0.0000, 0.0000, -0.9450, -0.0521, -0.2581, 0.1937, 0.0019, -0.0099, -0.0201, 0.0000, 0.0000, 0.0000, 0.0000
0, 1.1650, 226, -0.4739, 0.2160, -0.8778, -0.2068, 0.1377, -0.3792, 0.0000, 0.0000, 0.0000, 0.0000, 0.0000, 0.0000, -0.9451, -0.0522, -0.2581, 0.1937, -0.0063, 0.0174, -0.0165, 0.0000, 0.0000, 0.0000, 0.0000
0, 1.1700, 227, -0.4737, 0.1967, -0.8661, -0.2050, 0.2931, 0.4336, 0.0000, 0.0000, 0.0000, 0.0000, 0.0000, 0.0000, -0.9451, -0.0522, -0.2580, 0.1937, -0.0063, -0.0020, -0.0047, 0.0000, 0.0000, 0.0000, 0.0000
0, 1.1750, 228, -0.4778, 0.1965, -0.8738, -0.4616, -0.3432, -0.2277, 0.0000, 0.0000, 0.0000, 0.0000, 0.0000, 0.0000, -0.9451, -0.0522, -0.2581, 0.1937, -0.0102, -0.0021, -0.0125, 0.0000, 0.0000, 0.0000, 0.0000
0, 1.1800, 229, -0.4658, 0.1927, -0.8738, -0.4007, -0.2912, -0.9781, 0.0000, 0.0000, 0.0000, 0.0000, 0.0000, 0.0000, -0.9451, -0.0521, -0.2581, 0.1937, 0.0019, -0.0059, -0.0125, 0.0000, 0.0000, 0.0000, 0.0000
0, 1.1850, 230, -0.4616, 0.1969, -0.8584, -0.0091, 0.2906, 0.0216, 0.0000, 0.0000, 0.0000, 0.0000, 0.0000, 0.0000, -0.9451, -0.0521, -0.2580, 0.1937, 0.0060, -0.0015, 0.0030, 0.0000, 0.0000, 0.0000, 0.0000
0, 1.1900, 231, -0.4656, 0.1930, -0.8584, 0.3269, -0.1085, -0.1807, 0.0000, 0.0000, 0.0000, 0.0000, 0.0000, 0.0000, -0.9451, -0.0520, -0.2581, 0.1937, 0.0022, -0.0054, 0.0029, 0.0000, 0.0000, 0.0000, 0.0000
0, 1.1950, 232, -0.4616, 0.1969, -0.8584, -0.1351, -0.0532, 0.0315, 0.0000, 0.0000, 0.0000, 0.0000, 0.0000, 0.0000, -0.9451, -0.0520, -0.2581, 0.1937, 0.0061, -0.0013, 0.0030, 0.0000, 0.0000, 0.0000, 0.0000
0, 1.2000, 233, -0.4737, 0.1966, -0.8700, -0.7296, -0.0789, -0.0919, 0.0000, 0.0000, 0.0000, 0.0000, 0.0000, 0.0000, -0.9451, -0.0518, -0.2580, 0.1937, -0.0061, -0.0013, -0.0085, 0.0000, 0.0000, 0.0000, 0.0000
0, 1.2050, 234, -0.4656, 0.2047, -0.8585, -0.4671, -0.0755, -0.3693, 0.0000, 0.0000, 0.0000, 0.0000, 0.0000, 0.0000, -0.9451, -0.0519, -0.2580, 0.1936, 0.0020, 0.0067, 0.0030, 0.0000, 0.0000, 0.0000, 0.0000
0, 1.2100, 235, -0.4697, 0.1849, -0.8698, -0.8606, -0.2260, -0.3581, 0.0000, 0.0000, 0.0000, 0.0000, 0.0000, 0.0000, -0.9451, -0.0519, -0.2580, 0.1936, -0.0021, -0.0130, -0.0083, 0.0000, 0.0000, 0.0000, 0.0000
0, 1.2150, 236, -0.4737, 0.1927, -0.8699, -0.3288, -0.4077, -0.2970, 0.0000, 0.0000, 0.0000, 0.0000, 0.0000, 0.0000, -0.9451, -0.0518, -0.2580, 0.1936, -0.0061, -0.0052, -0.0084, 0.0000, 0.0000, 0.0000, 0.0000
0, 1.2200, 237, -0.4858, 0.2083, -0.8701, -0.1894, -0.8819, -0.4937, 0.0000, 0.0000, 0.0000, 0.0000, 0.0000, 0.0000, -0.9451, -0.0519, -0.2581, 0.1936, -0.0180, 0.0104, -0.0087, 0.0000, 0.0000, 0.0000, 0.0000
0, 1.2250, 238, -0.4736, 0.2086, -0.8585, -0.9948, -0.0211, -0.0877, 0.0000, 0.0000, 0.0000, 0.0000, 0.0000, 0.0000, -0.9451, -0.0519, -0.2582, 0.1935, -0.0057, 0.0106, 0.0028, 0.0000, 0.0000, 0.0000, 0.0000
0, 1.2300, 239, -0.4696, 0.2086, -0.8586, -0.4713, 0.0517, -0.7120, 0.0000, 0.0000, 0.0000, 0.0000, 0.0000, 0.0000, -0.9451, -0.0519, -0.2582, 0.1935, -0.0017, 0.0105, 0.0027, 0.0000, 0.0000, 0.0000, 0.0000
0, 1.2350, 240, -0.4736, 0.2007, -0.8623, -0.1390, 0.1485, -0.0407, 0.0000, 0.0000, 0.0000, 0.0000, 0.0000, 0.0000, -0.9451, -0.0519, -0.2583, 0.1935, -0.0056, 0.0026, -0.0011, 0.0000, 0.0000, 0.0000, 0.0000
0, 1.2400, 241, -0.4658, 0.1966, -0.8738, -0.3327, -0.2061, -0.3693, 0.0000, 0.0000, 0.0000, 0.0000, 0.0000, 0.0000, -0.9451, -0.0520, -0.2582, 0.1935, 0.0021, -0.0016, -0.0125, 0.0000, 0.0000, 0.0000, 0.0000
0, 1.2450, 242, -0.4740, 0.2002, -0.8854, 0.1897, 0.2286, -0.0491, 0.0000, 0.0000, 0.0000, 0.0000, 0.0000, 0.0000, -0.9451, -0.0520, -0.2581, 0.1935, -0.0063, 0.0021, -0.0240, 0.0000, 0.0000, 0.0000, 0.0000
0, 1.2550, 243, -0.4739, 0.2082, -0.8778, -0.3939, -0.4796, -0.3622, 0.0000, 0.0000, 0.0000, 0.0000, 0.0000, 0.0000, -0.9451, -0.0523, -0.2581, 0.1935, -0.0063, 0.0095, -0.0165, 0.0000, 0.0000, 0.0000, 0.0000
0, 1.2600, 244, -0.4697, 0.1889, -0.8660, -0.4685, -0.0821, -0.6412, 0.0000, 0.0000, 0.0000, 0.0000, 0.0000, 0.0000, -0.9451, -0.0522, -0.2581, 0.1934, -0.0020, -0.0097, -0.0047, 0.0000, 0.0000, 0.0000, 0.0000
0, 1.2650, 245, -0.4656, 0.2008, -0.8585, -0.0835, 0.5426, -0.6623, 0.0000, 0.0000, 0.0000, 0.0000, 0.0000, 0.0000, -0.9451, -0.0523, -0.2581, 0.1934, 0.0021, 0.0021, 0.0028, 0.0000, 0.0000, 0.0000, 0.0000
0, 1.2700, 246, -0.4656, 0.2007, -0.8623, -0.4647, -0.2110, -0.3665, 0.0000, 0.0000, 0.0000, 0.0000, 0.0000, 0.0000, -0.9451, -0.0524, -0.2580, 0.1934, 0.0018, 0.0019, -0.0009, 0.0000, 0.0000, 0.0000, 0.0000
0, 1.2750, 247, -0.4696, 0.2047, -0.8585, -0.4034, -0.0102, -0.5760, 0.0000, 0.0000, 0.0000, 0.0000, 0.0000, 0.0000, -0.9451, -0.0524, -0.2580, 0.1934, -0.0022, 0.0057, 0.0029, 0.0000, 0.0000, 0.0000, 0.0000
0, 1.2800, 248, -0.4658, 0.2006, -0.8700, 0.3962, -0.3109, -0.2458, 0.0000, 0.0000, 0.0000, 0.0000, 0.0000, 0.0000, -0.9451, -0.0524, -0.2579, 0.1934, 0.0016, 0.0016, -0.0086, 0.0000, 0.0000, 0.0000, 0.0000
0, 1.2850, 249, -0.4858, 0.1965, -0.8738, 0.0569, 0.0733, -0.6551, 0.0000, 0.0000, 0.0000, 0.0000, 0.0000, 0.0000, -0.9451, -0.0525, -0.2580, 0.1934, -0.0183, -0.0025, -0.0125, 0.0000, 0.0000, 0.0000, 0.0000
0, 1.2900, 250, -0.4697, 0.1849, -0.8698, 0.2556, 0.0840, -0.5234, 0.0000, 0.0000, 0.0000, 0.0000, 0.0000, 0.0000, -0.9451, -0.0524, -0.2580, 0.1933, -0.0022, -0.0139, -0.0085, 0.0000, 0.0000, 0.0000, 0.0000
0, 1.2950, 251, -0.4736, 0.1968, -0.8584, 0.1309, -0.1804, -0.0392, 0.0000, 0.0000, 0.0000, 0.0000, 0.0000, 0.0000, -0.9451, -0.0524, -0.2581, 0.1933, -0.0059, -0.0020, 0.0028, 0.0000, 0.0000, 0.0000, 0.0000
0, 1.3000, 252, -0.4777, 0.1928, -0.8661, -0.7306, -0.1565, -0.4982, 0.0000, 0.0000, 0.0000, 0.0000, 0.0000, 0.0000, -0.9451, -0.0524, -0.2581, 0.1933, -0.0100, -0.0060, -0.0048, 0.0000, 0.0000, 0.0000, 0.0000
0, 1.3050, 253, -0.4737, 0.2006, -0.8662, -0.4697, 0.1327, -0.1697, 0.0000, 0.0000, 0.0000, 0.0000, 0.0000, 0.0000, -0.9451, -0.0523, -0.2581, 0.1933, -0.0060, 0.0019, -0.0049, 0.0000, 0.0000, 0.0000, 0.0000
0, 1.3100, 254, -0.4739, 0.2003, -0.8815, -0.1396, 0.0724, -0.3791, 0.0000, 0.0000, 0.0000, 0.0000, 0.0000, 0.0000, -0.9451, -0.0523, -0.2581, 0.1933, -0.0062, 0.0018, -0.0202, 0.0000, 0.0000, 0.0000, 0.0000
0, 1.3150, 255, -0.4777, 0.1888, -0.8699, 0.1886, 0.2237, -0.2530, 0.0000, 0.0000, 0.0000, 0.0000, 0.0000, 0.0000, -0.9451, -0.0521, -0.2582, 0.1932, -0.0099, -0.0095, -0.0086, 0.0000, 0.0000, 0.0000, 0.0000
0, 1.3200, 256, -0.4857, 0.2006, -0.8662, 0.1262, 0.0179, -0.2473, 0.0000, 0.0000, 0.0000, 0.0000, 0.0000, 0.0000, -0.9451, -0.0521, -0.2582, 0.1932, -0.0177, 0.0024, -0.0049, 0.0000, 0.0000, 0.0000, 0.0000
0, 1.3250, 257, -0.4697, 0.2084, -0.8662, -0.0707, -0.1317, -0.5122, 0.0000, 0.0000, 0.0000, 0.0000, 0.0000, 0.0000, -0.9452, -0.0521, -0.2582, 0.1932, -0.0019, 0.0102, -0.0050, 0.0000, 0.0000, 0.0000, 0.0000
0, 1.3300, 258, -0.4777, 0.1888, -0.8699, 0.4487, 0.3625, -0.5333, 0.0000, 0.0000, 0.0000, 0.0000, 0.0000, 0.0000, -0.9452, -0.0520, -0.2581, 0.1932, -0.0099, -0.0093, -0.0085, 0.0000, 0.0000, 0.0000, 0.0000
0, 1.3350, 259, -0.4618, 0.2123, -0.8701, -0.2641, -0.1176, 0.3755, 0.0000, 0.0000, 0.0000, 0.0000, 0.0000, 0.0000, -0.9452, -0.0521, -0.2581, 0.1932, 0.0059, 0.0141, -0.0088, 0.0000, 0.0000, 0.0000, 0.0000
0, 1.3400, 260, -0.4736, 0.2007, -0.8623, 0.1742, 0.8169, -0.9454, 0.0000, 0.0000, 0.0000, 0.0000, 0.0000, 0.0000, -0.9452, -0.0521, -0.2580, 0.1932, -0.0061, 0.0025, -0.0009, 0.0000, 0.0000, 0.0000, 0.0000
0, 1.3450, 261, -0.4576, 0.2008, -0.8585, 0.1201, 0.4294, -0.0520, 0.0000, 0.0000, 0.0000, 0.0000, 0.0000, 0.0000, -0.9452, -0.0521, -0.2580, 0.1931, 0.0099, 0.0026, 0.0030, 0.0000, 0.0000, 0.0000, 0.0000
0, 1.3500, 262, -0.4657, 0.2045, -0.8662, 0.1881, 0.2947, -0.1185, 0.0000, 0.0000, 0.0000, 0.0000, 0.0000, 0.0000, -0.9452, -0.0522, -0.2579, 0.1931, 0.0016, 0.0062, -0.0047, 0.0000, 0.0000, 0.0000, 0.0000
0, 1.3550, 263, -0.4697, 0.1966, -0.8700, 0.4601, -0.1712, -0.1821, 0.0000, 0.0000, 0.0000, 0.0000, 0.0000, 0.0000, -0.9452, -0.0522, -0.2579, 0.1931, -0.0024, -0.0016, -0.0084, 0.0000, 0.0000, 0.0000, 0.0000
0, 1.3600, 264, -0.4738, 0.2005, -0.8700, 0.4024, -0.5753, 0.0317, 0.0000, 0.0000, 0.0000, 0.0000, 0.0000, 0.0000, -0.9452, -0.0521, -0.2580, 0.1931, -0.0062, 0.0024, -0.0085, 0.0000, 0.0000, 0.0000, 0.0000
0, 1.3650, 265, -0.4577, 0.1888, -0.8699, 0.2617, -0.1076, -0.0434, 0.0000, 0.0000, 0.0000, 0.0000, 0.0000, 0.0000, -0.9453, -0.0520, -0.2579, 0.1931, 0.0097, -0.0091, -0.0083, 0.0000, 0.0000, 0.0000, 0.0000
0, 1.3700, 266, -0.4736, 0.1810, -0.8660, 0.2490, 0.3468, -0.8689, 0.0000, 0.0000, 0.0000, 0.0000, 0.0000, 0.0000, -0.9453, -0.0519, -0.2578, 0.1931, -0.0062, -0.0166, -0.0043, 0.0000, 0.0000, 0.0000, 0.0000
0, 1.3750, 267, -0.4818, 0.1847, -0.8775, 0.0615, -0.0523, -0.2445, 0.0000, 0.0000, 0.0000, 0.0000, 0.0000, 0.0000, -0.9453, -0.0516, -0.2579, 0.1931, -0.0142, -0.0125, -0.0159, 0.0000, 0.0000, 0.0000, 0.0000
0, 1.3800, 268, -0.4655, 0.1969, -0.8546, -0.0783, 0.2732, -0.5887, 0.0000, 0.0000, 0.0000, 0.0000, 0.0000, 0.0000, -0.9453, -0.0516, -0.2578, 0.1931, 0.0020, -0.0002, 0.0071, 0.0000, 0.0000, 0.0000, 0.0000
0, 1.3850, 269, -0.4698, 0.2005, -0.8700, 0.1289, -0.2630, -0.6494, 0.0000, 0.0000, 0.0000, 0.0000, 0.0000, 0.0000, -0.9453, -0.0517, -0.2578, 0.1930, -0.0024, 0.0033, -0.0082, 0.0000, 0.0000, 0.0000, 0.0000
0, 1.3900, 270, -0.4820, 0.1963, -0.8853, 0.5866, -0.1184, -1.0018, 0.0000, 0.0000, 0.0000, 0.0000, 0.0000, 0.0000, -0.9453, -0.0517, -0.2578, 0.1930, -0.0145, -0.0009, -0.0236, 0.0000, 0.0000, 0.0000, 0.0000
0, 1.3950, 271, -0.4737, 0.2046, -0.8624, 0.3937, -0.3225, -0.7215, 0.0000, 0.0000, 0.0000, 0.0000, 0.0000, 0.0000, -0.9453, -0.0517, -0.2579, 0.1930, -0.0061, 0.0074, -0.0007, 0.0000, 0.0000, 0.0000, 0.0000
0, 1.4000, 272, -0.4697, 0.1927, -0.8699, 0.2610, -0.1109, -0.1793, 0.0000, 0.0000, 0.0000, 0.0000, 0.0000, 0.0000, -0.9453, -0.0515, -0.2579, 0.1930, -0.0021, -0.0041, -0.0082, 0.0000, 0.0000, 0.0000, 0.0000
0, 1.4050, 273, -0.4696, 0.1850, -0.8660, 0.3257, -0.1878, -0.6550, 0.0000, 0.0000, 0.0000, 0.0000, 0.0000, 0.0000, -0.9453, -0.0514, -0.2578, 0.1930, -0.0020, -0.0118, -0.0043, 0.0000, 0.0000, 0.0000, 0.0000
0, 1.4100, 274, -0.4655, 0.1851, -0.8583, -0.1296, -0.4680, -0.2998, 0.0000, 0.0000, 0.0000, 0.0000, 0.0000, 0.0000, -0.9453, -0.0513, -0.2578, 0.1929, 0.0022, -0.0114, 0.0035, 0.0000, 0.0000, 0.0000, 0.0000
0, 1.4150, 275, -0.4617, 0.1927, -0.8699, -0.0038, -0.2713, -0.7826, 0.0000, 0.0000, 0.0000, 0.0000, 0.0000, 0.0000, -0.9454, -0.0513, -0.2577, 0.1929, 0.0058, -0.0036, -0.0080, 0.0000, 0.0000, 0.0000, 0.0000
0, 1.4200, 276, -0.4619, 0.1964, -0.8815, 0.0001, -0.2531, -0.0350, 0.0000, 0.0000, 0.0000, 0.0000, 0.0000, 0.0000, -0.9454, -0.0512, -0.2575, 0.1929, 0.0053, 0.0004, -0.0194, 0.0000, 0.0000, 0.0000, 0.0000
0, 1.4250, 277, -0.4737, 0.2084, -0.8662, 0.0751, -0.7960, -0.1609, 0.0000, 0.0000, 0.0000, 0.0000, 0.0000, 0.0000, -0.9455, -0.0512, -0.2574, 0.1928, -0.0067, 0.0124, -0.0040, 0.0000, 0.0000, 0.0000, 0.0000
0, 1.4300, 278, -0.4777, 0.1966, -0.8700, 0.2493, 0.5683, -0.1256, 0.0000, 0.0000, 0.0000, 0.0000, 0.0000, 0.0000, -0.9455, -0.0512, -0.2575, 0.1928, -0.0107, 0.0005, -0.0078, 0.0000, 0.0000, 0.0000, 0.0000
0, 1.4350, 279, -0.4658, 0.1926, -0.8776, -0.3908, -0.6118, -0.2234, 0.0000, 0.0000, 0.0000, 0.0000, 0.0000, 0.0000, -0.9455, -0.0512, -0.2575, 0.1928, 0.0013, -0.0036, -0.0154, 0.0000, 0.0000, 0.0000, 0.0000
0, 1.4400, 280, -0.4818, 0.2043, -0.8739, -0.3974, -0.3490, -0.5689, 0.0000, 0.0000, 0.0000, 0.0000, 0.0000, 0.0000, -0.9454, -0.0511, -0.2576, 0.1928, -0.0146, 0.0083, -0.0118, 0.0000, 0.0000, 0.0000, 0.0000
0, 1.4450, 281, -0.4898, 0.2083, -0.8701, -0.2681, -0.0631, -0.1696, 0.0000, 0.0000, 0.0000, 0.0000, 0.0000, 0.0000, -0.9454, -0.0512, -0.2578, 0.1928, -0.0222, 0.0121, -0.0082, 0.0000, 0.0000, 0.0000, 0.0000
0, 1.4500, 282, -0.4739, 0.1965, -0.8776, 0.3910, -0.0415, -0.3195, 0.0000, 0.0000, 0.0000, 0.0000, 0.0000, 0.0000, -0.9454, -0.0512, -0.2577, 0.1928, -0.0063, 0.0002, -0.0157, 0.0000, 0.0000, 0.0000, 0.0000
0, 1.4550, 283, -0.4739, 0.1846, -0.8814, 0.1237, 0.0064, -0.7231, 0.0000, 0.0000, 0.0000, 0.0000, 0.0000, 0.0000, -0.9454, -0.0511, -0.2577, 0.1928, -0.0064, -0.0114, -0.0194, 0.0000, 0.0000, 0.0000, 0.0000
0, 1.4600, 284, -0.4657, 0.1928, -0.8661, -0.0108, 0.2096, -0.5207, 0.0000, 0.0000, 0.0000, 0.0000, 0.0000, 0.0000, -0.9454, -0.0511, -0.2576, 0.1928, 0.0018, -0.0032, -0.0040, 0.0000, 0.0000, 0.0000, 0.0000
0, 1.4650, 285, -0.4698, 0.2005, -0.8700, -0.1254, -0.5952, 0.0429, 0.0000, 0.0000, 0.0000, 0.0000, 0.0000, 0.0000, -0.9455, -0.0512, -0.2576, 0.1927, -0.0025, 0.0044, -0.0079, 0.0000, 0.0000, 0.0000, 0.0000
0, 1.4700, 286, -0.4735, 0.1890, -0.8583, -0.0007, -0.1837, 0.0316, 0.0000, 0.0000, 0.0000, 0.0000, 0.0000, 0.0000, -0.9454, -0.0510, -0.2577, 0.1927, -0.0059, -0.0069, 0.0036, 0.0000, 0.0000, 0.0000, 0.0000
0, 1.4750, 287, -0.4697, 0.1966, -0.8700, 0.0032, -0.1655, 0.7792, 0.0000, 0.0000, 0.0000, 0.0000, 0.0000, 0.0000, -0.9454, -0.0510, -0.2577, 0.1928, -0.0021, 0.0008, -0.0080, 0.0000, 0.0000, 0.0000, 0.0000
0, 1.4800, 288, -0.4656, 0.1929, -0.8622, 0.3966, -0.5290, -0.8532, 0.0000, 0.0000, 0.0000, 0.0000, 0.0000, 0.0000, -0.9454, -0.0511, -0.2577, 0.1927, 0.0019, -0.0030, -0.0002, 0.0000, 0.0000, 0.0000, 0.0000
0, 1.4850, 289, -0.4656, 0.1929, -0.8622, 0.0581, 0.0055, -0.6537, 0.0000, 0.0000, 0.0000, 0.0000, 0.0000, 0.0000, -0.9454, -0.0511, -0.2577, 0.1927, 0.0019, -0.0030, -0.0002, 0.0000, 0.0000, 0.0000, 0.0000
0, 1.4900, 290, -0.4738, 0.2005, -0.8738, -0.1997, -0.1961, -0.1681, 0.0000, 0.0000, 0.0000, 0.0000, 0.0000, 0.0000, -0.9454, -0.0511, -0.2577, 0.1927, -0.0063, 0.0046, -0.0119, 0.0000, 0.0000, 0.0000, 0.0000
0, 1.4950, 291, -0.4697, 0.2006, -0.8662, -0.0731, 0.1509, -0.0421, 0.0000, 0.0000, 0.0000, 0.0000, 0.0000, 0.0000, -0.9454, -0.0512, -0.2577, 0.1927, -0.0022, 0.0045, -0.0042, 0.0000, 0.0000, 0.0000, 0.0000
0, 1.5000, 292, -0.4738, 0.2084, -0.8701, 0.0599, 0.0138, -0.3139, 0.0000, 0.0000, 0.0000, 0.0000, 0.0000, 0.0000, -0.9454, -0.0512, -0.2577, 0.1926, -0.0062, 0.0122, -0.0082, 0.0000, 0.0000, 0.0000, 0.0000
0, 1.5050, 293, -0.4817, 0.1888, -0.8660, -0.6640, -0.0780, -0.1612, 0.0000, 0.0000, 0.0000, 0.0000, 0.0000, 0.0000, -0.9454, -0.0513, -0.2578, 0.1926, -0.0139, -0.0075, -0.0042, 0.0000, 0.0000, 0.0000, 0.0000
0, 1.5100, 294, -0.4615, 0.2009, -0.8546, 0.0656, -0.3266, -0.3748, 0.0000, 0.0000, 0.0000, 0.0000, 0.0000, 0.0000, -0.9454, -0.0514, -0.2578, 0.1926, 0.0062, 0.0044, 0.0072, 0.0000, 0.0000, 0.0000, 0.0000
0, 1.5150, 295, -0.4735, 0.1890, -0.8583, -0.2711, -0.0036, -0.5108, 0.0000, 0.0000, 0.0000, 0.0000, 0.0000, 0.0000, -0.9454, -0.0513, -0.2579, 0.1926, -0.0057, -0.0074, 0.0034, 0.0000, 0.0000, 0.0000, 0.0000
0, 1.5200, 296, -0.4737, 0.1967, -0.8661, -0.0089, 0.1452, -0.3833, 0.0000, 0.0000, 0.0000, 0.0000, 0.0000, 0.0000, -0.9454, -0.0513, -0.2579, 0.1926, -0.0058, 0.0003, -0.0044, 0.0000, 0.0000, 0.0000, 0.0000
0, 1.5250, 297, -0.4819, 0.1964, -0.8815, 0.2578, 0.0213, -0.3181, 0.0000, 0.0000, 0.0000, 0.0000, 0.0000, 0.0000, -0.9454, -0.0513, -0.2580, 0.1926, -0.0139, -0.0000, -0.0199, 0.0000, 0.0000, 0.0000, 0.0000
0, 1.5350, 298, -0.4858, 0.2005, -0.8700, -0.0735, 0.0022, -0.5830, 0.0000, 0.0000, 0.0000, 0.0000, 0.0000, 0.0000, -0.9454, -0.0511, -0.2579, 0.1925, -0.0177, 0.0045, -0.0083, 0.0000, 0.0000, 0.0000, 0.0000
0, 1.5400, 299, -0.4738, 0.1926, -0.8738, -0.0731, 0.1509, -0.0421, 0.0000, 0.0000, 0.0000, 0.0000, 0.0000, 0.0000, -0.9454, -0.0511, -0.2579, 0.1925, -0.0057, -0.0033, -0.0120, 0.0000, 0.0000, 0.0000, 0.0000
0, 1.5450, 300, -0.4657, 0.2085, -0.8624, -0.3327, -0.4259, -1.0446, 0.0000, 0.0000, 0.0000, 0.0000, 0.0000, 0.0000, -0.9454, -0.0511, -0.2580, 0.1925, 0.0025, 0.0126, -0.0007, 0.0000, 0.0000, 0.0000, 0.0000
0, 1.5500, 301, -0.4740, 0.2041, -0.8854, -0.4626, -0.2011, 0.0413, 0.0000, 0.0000, 0.0000, 0.0000, 0.0000, 0.0000, -0.9454, -0.0512, -0.2580, 0.1925, -0.0059, 0.0081, -0.0237, 0.0000, 0.0000, 0.0000, 0.0000
0, 1.5550, 302, -0.4777, 0.1928, -0.8661, -0.1978, -0.2606, -0.0308, 0.0000, 0.0000, 0.0000, 0.0000, 0.0000, 0.0000, -0.9454, -0.0511, -0.2581, 0.1925, -0.0094, -0.0032, -0.0045, 0.0000, 0.0000, 0.0000, 0.0000
0, 1.5600, 303, -0.4816, 0.1928, -0.8622, -0.0705, -0.0573, -0.2417, 0.0000, 0.0000, 0.0000, 0.0000, 0.0000, 0.0000, -0.9453, -0.0511, -0.2582, 0.1925, -0.0131, -0.0031, -0.0008, 0.0000, 0.0000, 0.0000, 0.0000
0, 1.5650, 304, -0.5017, 0.1927, -0.8661, -0.3404, 0.0517, -0.9186, 0.0000, 0.0000, 0.0000, 0.0000, 0.0000, 0.0000, -0.9453, -0.0510, -0.2583, 0.1924, -0.0329, -0.0032, -0.0047, 0.0000, 0.0000, 0.0000, 0.0000
0, 1.5700, 305, -0.4654, 0.1932, -0.8469, -0.2104, 0.3410, -0.3834, 0.0000, 0.0000, 0.0000, 0.0000, 0.0000, 0.0000, -0.9453, -0.0510, -0.2583, 0.1924, 0.0034, -0.0027, 0.0145, 0.0000, 0.0000, 0.0000, 0.0000
0, 1.5750, 306, -0.4736, 0.2008, -0.8585, -0.6705, -0.0351, -1.1821, 0.0000, 0.0000, 0.0000, 0.0000, 0.0000, 0.0000, -0.9453, -0.0510, -0.2584, 0.1924, -0.0047, 0.0049, 0.0028, 0.0000, 0.0000, 0.0000, 0.0000
0, 1.5800, 307, -0.4738, 0.1925, -0.8776, -0.1412, 0.1385, -0.4485, 0.0000, 0.0000, 0.0000, 0.0000, 0.0000, 0.0000, -0.9453, -0.0510, -0.2583, 0.1924, -0.0051, -0.0033, -0.0162, 0.0000, 0.0000, 0.0000, 0.0000
0, 1.5850, 308, -0.4898, 0.2005, -0.8700, -0.1325, -0.2614, -0.1681, 0.0000, 0.0000, 0.0000, 0.0000, 0.0000, 0.0000, -0.9453, -0.0511, -0.2583, 0.1924, -0.0211, 0.0044, -0.0086, 0.0000, 0.0000, 0.0000, 0.0000
0, 1.5900, 309, -0.4777, 0.2085, -0.8624, -0.1358, -0.0565, -0.1044, 0.0000, 0.0000, 0.0000, 0.0000, 0.0000, 0.0000, -0.9453, -0.0512, -0.2584, 0.1924, -0.0089, 0.0122, -0.0012, 0.0000, 0.0000, 0.0000, 0.0000
0, 1.5950, 310, -0.4697, 0.1967, -0.8661, -0.8654, 0.0451, -0.3638, 0.0000, 0.0000, 0.0000, 0.0000, 0.0000, 0.0000, -0.9453, -0.0513, -0.2584, 0.1924, -0.0009, 0.0004, -0.0049, 0.0000, 0.0000, 0.0000, 0.0000
0, 1.6000, 311, -0.4619, 0.1886, -0.8814, -0.2075, 0.1344, -0.5151, 0.0000, 0.0000, 0.0000, 0.0000, 0.0000, 0.0000, -0.9453, -0.0512, -0.2583, 0.1923, 0.0067, -0.0075, -0.0201, 0.0000, 0.0000, 0.0000, 0.0000
0, 1.6050, 312, -0.4737, 0.2006, -0.8662, -0.6006, -0.0144, -0.4359, 0.0000, 0.0000, 0.0000, 0.0000, 0.0000, 0.0000, -0.9454, -0.0512, -0.2583, 0.1923, -0.0051, 0.0045, -0.0048, 0.0000, 0.0000, 0.0000, 0.0000
0, 1.6100, 313, -0.4700, 0.2081, -0.8816, 0.1276, 0.0245, 0.0245, 0.0000, 0.0000, 0.0000, 0.0000, 0.0000, 0.0000, -0.9454, -0.0513, -0.2582, 0.1923, -0.0015, 0.0119, -0.0202, 0.0000, 0.0000, 0.0000, 0.0000
0, 1.6150, 314, -0.4737, 0.1966, -0.8700, -0.0686, -0.1217, -0.1044, 0.0000, 0.0000, 0.0000, 0.0000, 0.0000, 0.0000, -0.9454, -0.0512, -0.2582, 0.1923, -0.0053, 0.0004, -0.0085, 0.0000, 0.0000, 0.0000, 0.0000
0, 1.6200, 315, -0.4738, 0.2123, -0.8701, -0.0714, 0.0121, -0.1752, 0.0000, 0.0000, 0.0000, 0.0000, 0.0000, 0.0000, -0.9454, -0.0515, -0.2582, 0.1923, -0.0054, 0.0157, -0.0087, 0.0000, 0.0000, 0.0000, 0.0000
0, 1.6250, 316, -0.4738, 0.2123, -0.8663, -0.0185, 0.6872, -0.3947, 0.0000, 0.0000, 0.0000, 0.0000, 0.0000, 0.0000, -0.9454, -0.0515, -0.2582, 0.1923, -0.0054, 0.0157, -0.0049, 0.0000, 0.0000, 0.0000, 0.0000
0, 1.6300, 317, -0.4697, 0.1966, -0.8700, -0.7265, -0.4309, -0.6285, 0.0000, 0.0000, 0.0000, 0.0000, 0.0000, 0.0000, -0.9454, -0.0515, -0.2582, 0.1923, -0.0014, -0.0001, -0.0086, 0.0000, 0.0000, 0.0000, 0.0000
0, 1.6350, 318, -0.4737, 0.1927, -0.8699, -0.3289, -0.3350, -0.0946, 0.0000, 0.0000, 0.0000, 0.0000, 0.0000, 0.0000, -0.9454, -0.0515, -0.2582, 0.1922, -0.0053, -0.0039, -0.0086, 0.0000, 0.0000, 0.0000, 0.0000
0, 1.6400, 319, -0.4738, 0.2005, -0.8700, 0.3987, -0.5191, -0.4454, 0.0000, 0.0000, 0.0000, 0.0000, 0.0000, 0.0000, -0.9454, -0.0515, -0.2583, 0.1922, -0.0053, 0.0038, -0.0087, 0.0000, 0.0000, 0.0000, 0.0000
0, 1.6450, 320, -0.4817, 0.2124, -0.8624, -0.0757, 0.2121, -0.3154, 0.0000, 0.0000, 0.0000, 0.0000, 0.0000, 0.0000, -0.9453, -0.0517, -0.2583, 0.1923, -0.0132, 0.0154, -0.0012, 0.0000, 0.0000, 0.0000, 0.0000
0, 1.6500, 321, -0.4697, 0.2006, -0.8662, -0.6064, 0.1789, -0.8480, 0.0000, 0.0000, 0.0000, 0.0000, 0.0000, 0.0000, -0.9453, -0.0517, -0.2584, 0.1922, -0.0011, 0.0035, -0.0050, 0.0000, 0.0000, 0.0000, 0.0000
0, 1.6550, 322, -0.4657, 0.2085, -0.8624, 0.1949, -0.2605, -0.6508, 0.0000, 0.0000, 0.0000, 0.0000, 0.0000, 0.0000, -0.9453, -0.0517, -0.2584, 0.1922, 0.0030, 0.0114, -0.0013, 0.0000, 0.0000, 0.0000, 0.0000
0, 1.6600, 323, -0.4737, 0.1889, -0.8660, 0.3881, 0.1650, -0.1878, 0.0000, 0.0000, 0.0000, 0.0000, 0.0000, 0.0000, -0.9453, -0.0517, -0.2583, 0.1922, -0.0051, -0.0082, -0.0048, 0.0000, 0.0000, 0.0000, 0.0000
0, 1.6650, 324, -0.4817, 0.2045, -0.8662, 0.2581, 0.0956, -0.0477, 0.0000, 0.0000, 0.0000, 0.0000, 0.0000, 0.0000, -0.9453, -0.0518, -0.2584, 0.1922, -0.0130, 0.0073, -0.0051, 0.0000, 0.0000, 0.0000, 0.0000
0, 1.6700, 325, -0.4699, 0.2043, -0.8777, 0.2514, 0.2113, -0.8661, 0.0000, 0.0000, 0.0000, 0.0000, 0.0000, 0.0000, -0.9453, -0.0517, -0.2584, 0.1922, -0.0012, 0.0072, -0.0166, 0.0000, 0.0000, 0.0000, 0.0000
0, 1.6800, 326, -0.4697, 0.1927, -0.8699, 0.3194, 0.0766, -0.9326, 0.0000, 0.0000, 0.0000, 0.0000, 0.0000, 0.0000, -0.9453, -0.0517, -0.2584, 0.1921, -0.0010, -0.0043, -0.0088, 0.0000, 0.0000, 0.0000, 0.0000
0, 1.6850, 327, -0.4777, 0.1928, -0.8661, -0.1366, -0.2069, -0.7132, 0.0000, 0.0000, 0.0000, 0.0000, 0.0000, 0.0000, -0.9453, -0.0517, -0.2584, 0.1921, -0.0089, -0.0042, -0.0050, 0.0000, 0.0000, 0.0000, 0.0000
0, 1.6900, 328, -0.4655, 0.1969, -0.8546, -0.5336, -0.0069, -0.2334, 0.0000, 0.0000, 0.0000, 0.0000, 0.0000, 0.0000, -0.9454, -0.0516, -0.2583, 0.1921, 0.0030, 0.0001, 0.0066, 0.0000, 0.0000, 0.0000, 0.0000
0, 1.6950, 329, -0.4656, 0.1969, -0.8584, -0.0748, -0.0771, -1.0573, 0.0000, 0.0000, 0.0000, 0.0000, 0.0000, 0.0000, -0.9454, -0.0517, -0.2584, 0.1921, 0.0031, -0.0001, 0.0027, 0.0000, 0.0000, 0.0000, 0.0000
0, 1.7000, 330, -0.4698, 0.1966, -0.8738, -0.2154, 0.5376, -0.6595, 0.0000, 0.0000, 0.0000, 0.0000, 0.0000, 0.0000, -0.9454, -0.0516, -0.2583, 0.1920, -0.0012, -0.0003, -0.0126, 0.0000, 0.0000, 0.0000, 0.0000
0, 1.7050, 331, -0.4697, 0.1809, -0.8736, 0.3249, 0.0287, -0.1156, 0.0000, 0.0000, 0.0000, 0.0000, 0.0000, 0.0000, -0.9454, -0.0513, -0.2582, 0.1920, -0.0013, -0.0152, -0.0122, 0.0000, 0.0000, 0.0000, 0.0000
0, 1.7100, 332, -0.4736, 0.2007, -0.8623, -0.0711, -0.1333, -0.5801, 0.0000, 0.0000, 0.0000, 0.0000, 0.0000, 0.0000, -0.9455, -0.0513, -0.2581, 0.1920, -0.0053, 0.0046, -0.0008, 0.0000, 0.0000, 0.0000, 0.0000
0, 1.7150, 333, -0.4774, 0.1852, -0.8506, -0.5320, -0.4399, -1.3123, 0.0000, 0.0000, 0.0000, 0.0000, 0.0000, 0.0000, -0.9455, -0.0513, -0.2581, 0.1919, -0.0089, -0.0108, 0.0108, 0.0000, 0.0000, 0.0000, 0.0000
0, 1.7250, 334, -0.4655, 0.1970, -0.8507, -0.0728, 0.0055, -0.4471, 0.0000, 0.0000, 0.0000, 0.0000, 0.0000, 0.0000, -0.9455, -0.0512, -0.2582, 0.1919, 0.0031, 0.0011, 0.0107, 0.0000, 0.0000, 0.0000, 0.0000
0, 1.7300, 335, -0.4738, 0.2005, -0.8738, -0.7326, -0.3863, -1.5814, 0.0000, 0.0000, 0.0000, 0.0000, 0.0000, 0.0000, -0.9455, -0.0513, -0.2582, 0.1918, -0.0052, 0.0045, -0.0124, 0.0000, 0.0000, 0.0000, 0.0000
0, 1.7350, 336, -0.4576, 0.1851, -0.8622, -0.2098, 0.1972, -0.7204, 0.0000, 0.0000, 0.0000, 0.0000, 0.0000, 0.0000, -0.9455, -0.0512, -0.2582, 0.1918, 0.0110, -0.0108, -0.0007, 0.0000, 0.0000, 0.0000, 0.0000
0, 1.7400, 337, -0.4697, 0.1928, -0.8661, 0.0569, 0.0733, -0.6551, 0.0000, 0.0000, 0.0000, 0.0000, 0.0000, 0.0000, -0.9455, -0.0513, -0.2581, 0.1917, -0.0012, -0.0031, -0.0046, 0.0000, 0.0000, 0.0000, 0.0000
0, 1.7450, 338, -0.4695, 0.1890, -0.8583, 0.1292, -0.0416, 0.0939, 0.0000, 0.0000, 0.0000, 0.0000, 0.0000, 0.0000, -0.9455, -0.0511, -0.2581, 0.1917, -0.0011, -0.0066, 0.0032, 0.0000, 0.0000, 0.0000, 0.0000
0, 1.7500, 339, -0.4736, 0.2007, -0.8623, -0.0664, -0.3316, -0.3720, 0.0000, 0.0000, 0.0000, 0.0000, 0.0000, 0.0000, -0.9455, -0.0511, -0.2581, 0.1917, -0.0051, 0.0050, -0.0008, 0.0000, 0.0000, 0.0000, 0.0000
0, 1.7550, 340, -0.4775, 0.1969, -0.8546, -0.0498, -1.1348, 0.0529, 0.0000, 0.0000, 0.0000, 0.0000, 0.0000, 0.0000, -0.9455, -0.0511, -0.2582, 0.1917, -0.0089, 0.0012, 0.0069, 0.0000, 0.0000, 0.0000, 0.0000
0, 1.7600, 341, -0.4618, 0.2280, -0.8664, -0.0137, 0.4162, -0.3890, 0.0000, 0.0000, 0.0000, 0.0000, 0.0000, 0.0000, -0.9455, -0.0513, -0.2582, 0.1917, 0.0067, 0.0320, -0.0050, 0.0000, 0.0000, 0.0000, 0.0000
0, 1.7650, 342, -0.4739, 0.2043, -0.8777, -0.0021, -0.1903, -0.2403, 0.0000, 0.0000, 0.0000, 0.0000, 0.0000, 0.0000, -0.9455, -0.0513, -0.2582, 0.1917, -0.0054, 0.0082, -0.0163, 0.0000, 0.0000, 0.0000, 0.0000
0, 1.7700, 343, -0.4614, 0.1971, -0.8469, -0.2675, -0.2069, -0.5066, 0.0000, 0.0000, 0.0000, 0.0000, 0.0000, 0.0000, -0.9455, -0.0514, -0.2582, 0.1917, 0.0071, 0.0010, 0.0145, 0.0000, 0.0000, 0.0000, 0.0000
0, 1.7750, 344, -0.4577, 0.1967, -0.8661, 0.2012, -0.3778, 0.0996, 0.0000, 0.0000, 0.0000, 0.0000, 0.0000, 0.0000, -0.9455, -0.0514, -0.2581, 0.1917, 0.0107, 0.0006, -0.0047, 0.0000, 0.0000, 0.0000, 0.0000
0, 1.7800, 345, -0.4698, 0.2005, -0.8700, -0.1381, 0.0063, -0.3097, 0.0000, 0.0000, 0.0000, 0.0000, 0.0000, 0.0000, -0.9455, -0.0515, -0.2581, 0.1916, -0.0015, 0.0043, -0.0085, 0.0000, 0.0000, 0.0000, 0.0000
0, 1.7850, 346, -0.4695, 0.1969, -0.8546, 0.1380, -0.5142, 0.1718, 0.0000, 0.0000, 0.0000, 0.0000, 0.0000, 0.0000, -0.9455, -0.0515, -0.2581, 0.1917, -0.0013, 0.0006, 0.0069, 0.0000, 0.0000, 0.0000, 0.0000
0, 1.7900, 347, -0.4858, 0.2044, -0.8700, -0.0004, -0.3291, -0.3734, 0.0000, 0.0000, 0.0000, 0.0000, 0.0000, 0.0000, -0.9455, -0.0516, -0.2582, 0.1916, -0.0174, 0.0079, -0.0087, 0.0000, 0.0000, 0.0000, 0.0000
0, 1.7950, 348, -0.4816, 0.2007, -0.8585, -0.3337, -0.0639, -0.1002, 0.0000, 0.0000, 0.0000, 0.0000, 0.0000, 0.0000, -0.9455, -0.0516, -0.2582, 0.1916, -0.0131, 0.0042, 0.0028, 0.0000, 0.0000, 0.0000, 0.0000
0, 1.8000, 349, -0.4458, 0.1848, -0.8775, -0.3943, -0.4812, -0.4301, 0.0000, 0.0000, 0.0000, 0.0000, 0.0000, 0.0000, -0.9455, -0.0516, -0.2581, 0.1916, 0.0225, -0.0116, -0.0161, 0.0000, 0.0000, 0.0000, 0.0000
0, 1.8050, 350, -0.4697, 0.1966, -0.8700, 0.4622, -0.3084, -0.2472, 0.0000, 0.0000, 0.0000, 0.0000, 0.0000, 0.0000, -0.9455, -0.0516, -0.2581, 0.1916, -0.0015, 0.0002, -0.0085, 0.0000, 0.0000, 0.0000, 0.0000
0, 1.8100, 351, -0.4817, 0.1967, -0.8661, 0.0612, -0.1267, -0.5150, 0.0000, 0.0000, 0.0000, 0.0000, 0.0000, 0.0000, -0.9455, -0.0515, -0.2582, 0.1916, -0.0132, 0.0003, -0.0047, 0.0000, 0.0000, 0.0000, 0.0000
0, 1.8150, 352, -0.4659, 0.2004, -0.8777, 0.3899, -0.0465, -0.5233, 0.0000, 0.0000, 0.0000, 0.0000, 0.0000, 0.0000, -0.9455, -0.0515, -0.2582, 0.1916, 0.0026, 0.0041, -0.0163, 0.0000, 0.0000, 0.0000, 0.0000
0, 1.8200, 353, -0.4776, 0.2047, -0.8547, -0.0650, -0.3250, -0.1001, 0.0000, 0.0000, 0.0000, 0.0000, 0.0000, 0.0000, -0.9455, -0.0516, -0.2583, 0.1916, -0.0089, 0.0083, 0.0066, 0.0000, 0.0000, 0.0000, 0.0000
0, 1.8250, 354, -0.4735, 0.1930, -0.8545, 0.6514, -0.0481, -1.0047, 0.0000, 0.0000, 0.0000, 0.0000, 0.0000, 0.0000, -0.9455, -0.0515, -0.2583, 0.1915, -0.0049, -0.0034, 0.0068, 0.0000, 0.0000, 0.0000, 0.0000
0, 1.8300, 355, -0.4737, 0.2085, -0.8624, -0.0138, 0.4889, -0.1866, 0.0000, 0.0000, 0.0000, 0.0000, 0.0000, 0.0000, -0.9455, -0.0516, -0.2583, 0.1915, -0.0051, 0.0120, -0.0011, 0.0000, 0.0000, 0.0000, 0.0000
0, 1.8350, 356, -0.4697, 0.1927, -0.8699, -0.2706, -0.0747, -0.6453, 0.0000, 0.0000, 0.0000, 0.0000, 0.0000, 0.0000, -0.9455, -0.0515, -0.2581, 0.1915, -0.0013, -0.0036, -0.0085, 0.0000, 0.0000, 0.0000, 0.0000
0, 1.8400, 357, -0.4580, 0.2042, -0.8854, 0.1199, 0.3551, -0.3224, 0.0000, 0.0000, 0.0000, 0.0000, 0.0000, 0.0000, -0.9456, -0.0516, -0.2580, 0.1915, 0.0102, 0.0078, -0.0239, 0.0000, 0.0000, 0.0000, 0.0000
0, 1.8450, 358, -0.4657, 0.2045, -0.8662, 0.4471, 0.4286, -0.6027, 0.0000, 0.0000, 0.0000, 0.0000, 0.0000, 0.0000, -0.9456, -0.0516, -0.2580, 0.1915, 0.0025, 0.0082, -0.0047, 0.0000, 0.0000, 0.0000, 0.0000
0, 1.8500, 359, -0.4816, 0.1889, -0.8622, 0.1240, 0.0807, -0.4527, 0.0000, 0.0000, 0.0000, 0.0000, 0.0000, 0.0000, -0.9456, -0.0514, -0.2581, 0.1915, -0.0132, -0.0072, -0.0007, 0.0000, 0.0000, 0.0000, 0.0000
0, 1.8550, 360, -0.4698, 0.1926, -0.8776, -0.0810, 0.1873, -1.3348, 0.0000, 0.0000, 0.0000, 0.0000, 0.0000, 0.0000, -0.9456, -0.0514, -0.2581, 0.1914, -0.0015, -0.0035, -0.0161, 0.0000, 0.0000, 0.0000, 0.0000
0, 1.8600, 361, -0.4578, 0.2006, -0.8700, 0.5235, -0.1076, -0.4567, 0.0000, 0.0000, 0.0000, 0.0000, 0.0000, 0.0000, -0.9456, -0.0514, -0.2580, 0.1914, 0.0105, 0.0047, -0.0084, 0.0000, 0.0000, 0.0000, 0.0000
0, 1.8650, 362, -0.4658, 0.2005, -0.8738, -0.0025, -0.3391, -0.7811, 0.0000, 0.0000, 0.0000, 0.0000, 0.0000, 0.0000, -0.9456, -0.0513, -0.2581, 0.1914, 0.0026, 0.0047, -0.0123, 0.0000, 0.0000, 0.0000, 0.0000
0, 1.8700, 363, -0.4577, 0.2046, -0.8624, -0.1270, -0.5291, -0.0265, 0.0000, 0.0000, 0.0000, 0.0000, 0.0000, 0.0000, -0.9456, -0.0514, -0.2580, 0.1914, 0.0107, 0.0087, -0.0008, 0.0000, 0.0000, 0.0000, 0.0000
0, 1.8750, 364, -0.4656, 0.1930, -0.8584, -0.2680, -0.1358, -0.3721, 0.0000, 0.0000, 0.0000, 0.0000, 0.0000, 0.0000, -0.9456, -0.0514, -0.2580, 0.1913, 0.0026, -0.0030, 0.0032, 0.0000, 0.0000, 0.0000, 0.0000
0, 1.8800, 365, -0.4776, 0.1967, -0.8623, -0.7399, 0.2401, -0.9146, 0.0000, 0.0000, 0.0000, 0.0000, 0.0000, 0.0000, -0.9456, -0.0514, -0.2580, 0.1913, -0.0094, 0.0008, -0.0006, 0.0000, 0.0000, 0.0000, 0.0000
0, 1.8850, 366, -0.4697, 0.1966, -0.8700, -0.2646, -0.4135, -0.6382, 0.0000, 0.0000, 0.0000, 0.0000, 0.0000, 0.0000, -0.9456, -0.0514, -0.2580, 0.1913, -0.0016, 0.0007, -0.0083, 0.0000, 0.0000, 0.0000, 0.0000
0, 1.8900, 367, -0.4699, 0.2004, -0.8777, 0.1890, 0.2253, -0.1850, 0.0000, 0.0000, 0.0000, 0.0000, 0.0000, 0.0000, -0.9457, -0.0514, -0.2579, 0.1913, -0.0018, 0.0045, -0.0160, 0.0000, 0.0000, 0.0000, 0.0000
0, 1.8950, 368, -0.4738, 0.1925, -0.8776, -0.7912, -0.5011, -0.6257, 0.0000, 0.0000, 0.0000, 0.0000, 0.0000, 0.0000, -0.9456, -0.0515, -0.2579, 0.1913, -0.0057, -0.0035, -0.0159, 0.0000, 0.0000, 0.0000, 0.0000
0, 1.9000, 369, -0.4736, 0.1968, -0.8623, -0.0782, 0.2005, -0.7911, 0.0000, 0.0000, 0.0000, 0.0000, 0.0000, 0.0000, -0.9456, -0.0515, -0.2579, 0.1912, -0.0055, 0.0008, -0.0006, 0.0000, 0.0000, 0.0000, 0.0000
0, 1.9050, 370, -0.4737, 0.1927, -0.8699, -0.0055, -0.1325, -0.6495, 0.0000, 0.0000, 0.0000, 0.0000, 0.0000, 0.0000, -0.9457, -0.0515, -0.2579, 0.1912, -0.0056, -0.0033, -0.0083, 0.0000, 0.0000, 0.0000, 0.0000
0, 1.9100, 371, -0.4779, 0.1885, -0.8852, 0.3318, -0.5993, -0.8504, 0.0000, 0.0000, 0.0000, 0.0000, 0.0000, 0.0000, -0.9457, -0.0514, -0.2579, 0.1912, -0.0098, -0.0074, -0.0235, 0.0000, 0.0000, 0.0000, 0.0000
0, 1.9150, 372, -0.4616, 0.1929, -0.8622, 0.6525, 0.1039, -0.3279, 0.0000, 0.0000, 0.0000, 0.0000, 0.0000, 0.0000, -0.9457, -0.0514, -0.2579, 0.1912, 0.0065, -0.0028, -0.0005, 0.0000, 0.0000, 0.0000, 0.0000
0, 1.9200, 373, -0.4695, 0.1969, -0.8546, -0.4045, -0.0152, -0.7799, 0.0000, 0.0000, 0.0000, 0.0000, 0.0000, 0.0000, -0.9457, -0.0513, -0.2578, 0.1912, -0.0015, 0.0013, 0.0072, 0.0000, 0.0000, 0.0000, 0.0000
0, 1.9250, 374, -0.4776, 0.1929, -0.8584, -0.2721, 0.1385, -0.2418, 0.0000, 0.0000, 0.0000, 0.0000, 0.0000, 0.0000, -0.9457, -0.0513, -0.2579, 0.1911, -0.0094, -0.0027, 0.0034, 0.0000, 0.0000, 0.0000, 0.0000
0, 1.9300, 375, -0.4616, 0.1890, -0.8622, 0.6574, -0.1671, -0.3222, 0.0000, 0.0000, 0.0000, 0.0000, 0.0000, 0.0000, -0.9457, -0.0512, -0.2578, 0.1911, 0.0065, -0.0064, -0.0004, 0.0000, 0.0000, 0.0000, 0.0000
0, 1.9350, 376, -0.4857, 0.1927, -0.8661, -0.1953, -0.2490, 0.4449, 0.0000, 0.0000, 0.0000, 0.0000, 0.0000, 0.0000, -0.9457, -0.0511, -0.2579, 0.1911, -0.0174, -0.0025, -0.0043, 0.0000, 0.0000, 0.0000, 0.0000
0, 1.9400, 377, -0.4655, 0.1773, -0.8582, 0.5246, 0.0444, 0.2200, 0.0000, 0.0000, 0.0000, 0.0000, 0.0000, 0.0000, -0.9457, -0.0510, -0.2579, 0.1911, 0.0028, -0.0178, 0.0036, 0.0000, 0.0000, 0.0000, 0.0000
0, 1.9450, 378, -0.4657, 0.2045, -0.8662, -0.3361, 0.0716, -0.1031, 0.0000, 0.0000, 0.0000, 0.0000, 0.0000, 0.0000, -0.9457, -0.0511, -0.2579, 0.1911, 0.0025, 0.0093, -0.0044, 0.0000, 0.0000, 0.0000, 0.0000
0, 1.9500, 379, -0.4697, 0.2124, -0.8624, -0.0705, -0.0573, -0.2417, 0.0000, 0.0000, 0.0000, 0.0000, 0.0000, 0.0000, -0.9457, -0.0514, -0.2580, 0.1911, -0.0014, 0.0167, -0.0008, 0.0000, 0.0000, 0.0000, 0.0000
0, 1.9550, 380, -0.4693, 0.1893, -0.8430, -0.0742, -0.0011, -0.7189, 0.0000, 0.0000, 0.0000, 0.0000, 0.0000, 0.0000, -0.9457, -0.0513, -0.2580, 0.1911, -0.0009, -0.0064, 0.0186, 0.0000, 0.0000, 0.0000, 0.0000
0, 1.9600, 381, -0.4618, 0.1966, -0.8738, -0.1341, -0.1953, -0.2375, 0.0000, 0.0000, 0.0000, 0.0000, 0.0000, 0.0000, -0.9457, -0.0514, -0.2580, 0.1911, 0.0066, 0.0008, -0.0122, 0.0000, 0.0000, 0.0000, 0.0000
0, 1.9650, 382, -0.4859, 0.2042, -0.8816, -0.3365, 0.0699, -0.1711, 0.0000, 0.0000, 0.0000, 0.0000, 0.0000, 0.0000, -0.9457, -0.0514, -0.2580, 0.1911, -0.0176, 0.0084, -0.0200, 0.0000, 0.0000, 0.0000, 0.0000
0, 1.9700, 383, -0.4738, 0.1965, -0.8738, 0.3875, 0.0890, -0.5262, 0.0000, 0.0000, 0.0000, 0.0000, 0.0000, 0.0000, -0.9457, -0.0514, -0.2581, 0.1910, -0.0053, 0.0007, -0.0123, 0.0000, 0.0000, 0.0000, 0.0000
0, 1.9750, 384, -0.4698, 0.1926, -0.8776, 0.0474, 0.7624, -0.1936, 0.0000, 0.0000, 0.0000, 0.0000, 0.0000, 0.0000, -0.9457, -0.0514, -0.2580, 0.1910, -0.0015, -0.0032, -0.0160, 0.0000, 0.0000, 0.0000, 0.0000
0, 1.9800, 385, -0.4696, 0.1889, -0.8622, 0.1247, 0.0840, -0.3167, 0.0000, 0.0000, 0.0000, 0.0000, 0.0000, 0.0000, -0.9457, -0.0513, -0.2581, 0.1910, -0.0011, -0.0066, -0.0006, 0.0000, 0.0000, 0.0000, 0.0000
0, 1.9850, 386, -0.4699, 0.2004, -0.8777, 0.0510, 0.5591, -0.1894, 0.0000, 0.0000, 0.0000, 0.0000, 0.0000, 0.0000, -0.9457, -0.0513, -0.2580, 0.1910, -0.0014, 0.0047, -0.0161, 0.0000, 0.0000, 0.0000, 0.0000
0, 1.9900, 387, -0.4698, 0.1886, -0.8776, 0.3231, 0.0204, -0.4554, 0.0000, 0.0000, 0.0000, 0.0000, 0.0000, 0.0000, -0.9457, -0.0513, -0.2580, 0.1910, -0.0015, -0.0069, -0.0159, 0.0000, 0.0000, 0.0000, 0.0000
0, 1.9950, 388, -0.4738, 0.1807, -0.8813, -0.0750, 0.0683, -0.6524, 0.0000, 0.0000, 0.0000, 0.0000, 0.0000, 0.0000, -0.9457, -0.0512, -0.2579, 0.1910, -0.0056, -0.0146, -0.0196, 0.0000, 0.0000, 0.0000, 0.0000
0, 2.0000, 389, -0.4737, 0.2046, -0.8624, 0.3315, -0.2340, 0.2299, 0.0000, 0.0000, 0.0000, 0.0000, 0.0000, 0.0000, -0.9457, -0.0512, -0.2580, 0.1910, -0.0053, 0.0091, -0.0007, 0.0000, 0.0000, 0.0000, 0.0000
0, 2.0050, 390, -0.4738, 0.2044, -0.8700, -0.0018, -0.1887, -0.1723, 0.0000, 0.0000, 0.0000, 0.0000, 0.0000, 0.0000, -0.9457, -0.0513, -0.2580, 0.1910, -0.0054, 0.0089, -0.0084, 0.0000, 0.0000, 0.0000, 0.0000
0, 2.0100, 391, -0.4816, 0.1928, -0.8622, -0.2044, 0.0022, -0.3763, 0.0000, 0.0000, 0.0000, 0.0000, 0.0000, 0.0000, -0.9457, -0.0512, -0.2581, 0.1909, -0.0130, -0.0026, -0.0007, 0.0000, 0.0000, 0.0000, 0.0000
0, 2.0150, 392, -0.4696, 0.1929, -0.8622, 0.1249, 0.1584, -0.0463, 0.0000, 0.0000, 0.0000, 0.0000, 0.0000, 0.0000, -0.9457, -0.0512, -0.2580, 0.1909, -0.0012, -0.0026, -0.0006, 0.0000, 0.0000, 0.0000, 0.0000
0, 2.0250, 393, -0.4658, 0.1808, -0.8813, -0.0747, 0.0700, -0.5844, 0.0000, 0.0000, 0.0000, 0.0000, 0.0000, 0.0000, -0.9458, -0.0512, -0.2578, 0.1910, 0.0022, -0.0145, -0.0194, 0.0000, 0.0000, 0.0000, 0.0000
0, 2.0300, 394, -0.4698, 0.2005, -0.8700, -0.2653, -0.0499, 0.3741, 0.0000, 0.0000, 0.0000, 0.0000, 0.0000, 0.0000, -0.9458, -0.0512, -0.2577, 0.1910, -0.0019, 0.0053, -0.0080, 0.0000, 0.0000, 0.0000, 0.0000
0, 2.0350, 395, -0.4779, 0.2004, -0.8777, -0.2617, -0.4002, -0.0945, 0.0000, 0.0000, 0.0000, 0.0000, 0.0000, 0.0000, -0.9458, -0.0512, -0.2577, 0.1909, -0.0099, 0.0052, -0.0157, 0.0000, 0.0000, 0.0000, 0.0000
0, 2.0400, 396, -0.4618, 0.1926, -0.8776, -0.8119, 0.5764, -0.9203, 0.0000, 0.0000, 0.0000, 0.0000, 0.0000, 0.0000, -0.9458, -0.0512, -0.2576, 0.1909, 0.0059, -0.0025, -0.0155, 0.0000, 0.0000, 0.0000, 0.0000
0, 2.0450, 397, -0.4613, 0.1933, -0.8430, 0.0496, 0.5525, -0.4612, 0.0000, 0.0000, 0.0000, 0.0000, 0.0000, 0.0000, -0.9458, -0.0512, -0.2576, 0.1909, 0.0064, -0.0018, 0.0191, 0.0000, 0.0000, 0.0000, 0.0000
0, 2.0500, 398, -0.4577, 0.1967, -0.8661, -0.1381, 0.0063, -0.3097, 0.0000, 0.0000, 0.0000, 0.0000, 0.0000, 0.0000, -0.9459, -0.0512, -0.2574, 0.1909, 0.0097, 0.0016, -0.0039, 0.0000, 0.0000, 0.0000, 0.0000
0, 2.0550, 399, -0.4697, 0.2124, -0.8624, -0.2666, -0.2763, -0.5731, 0.0000, 0.0000, 0.0000, 0.0000, 0.0000, 0.0000, -0.9459, -0.0513, -0.2574, 0.1908, -0.0023, 0.0172, -0.0002, 0.0000, 0.0000, 0.0000, 0.0000
0, 2.0600, 400, -0.4817, 0.2006, -0.8662, -0.3863, -0.8844, -0.2857, 0.0000, 0.0000, 0.0000, 0.0000, 0.0000, 0.0000, -0.9459, -0.0513, -0.2575, 0.1908, -0.0142, 0.0053, -0.0040, 0.0000, 0.0000, 0.0000, 0.0000
0, 2.0700, 401, -0.4699, 0.2043, -0.8777, 0.1836, 0.4203, -0.5291, 0.0000, 0.0000, 0.0000, 0.0000, 0.0000, 0.0000, -0.9458, -0.0515, -0.2576, 0.1907, -0.0023, 0.0086, -0.0157, 0.0000, 0.0000, 0.0000, 0.0000
0, 2.0750, 402, -0.4698, 0.2045, -0.8700, -0.6008, 0.0583, -0.2334, 0.0000, 0.0000, 0.0000, 0.0000, 0.0000, 0.0000, -0.9458, -0.0516, -0.2576, 0.1907, -0.0022, 0.0086, -0.0080, 0.0000, 0.0000, 0.0000, 0.0000
0, 2.0800, 403, -0.4618, 0.1927, -0.8738, 0.5919, -0.0935, 0.0176, 0.0000, 0.0000, 0.0000, 0.0000, 0.0000, 0.0000, -0.9459, -0.0515, -0.2575, 0.1907, 0.0056, -0.0030, -0.0117, 0.0000, 0.0000, 0.0000, 0.0000
0, 2.0850, 404, -0.4818, 0.1886, -0.8776, -0.6017, -0.0194, -0.6398, 0.0000, 0.0000, 0.0000, 0.0000, 0.0000, 0.0000, -0.9459, -0.0515, -0.2575, 0.1907, -0.0144, -0.0069, -0.0154, 0.0000, 0.0000, 0.0000, 0.0000
0, 2.0900, 405, -0.4737, 0.2006, -0.8662, -0.0703, -0.3498, -1.1196, 0.0000, 0.0000, 0.0000, 0.0000, 0.0000, 0.0000, -0.9459, -0.0515, -0.2575, 0.1907, -0.0062, 0.0050, -0.0041, 0.0000, 0.0000, 0.0000, 0.0000
0, 2.0950, 406, -0.4697, 0.1928, -0.8661, 0.1951, -0.1862, -0.3804, 0.0000, 0.0000, 0.0000, 0.0000, 0.0000, 0.0000, -0.9459, -0.0514, -0.2575, 0.1907, -0.0021, -0.0026, -0.0040, 0.0000, 0.0000, 0.0000, 0.0000
0, 2.1000, 407, -0.4817, 0.2006, -0.8662, -0.0032, -0.1953, -0.4442, 0.0000, 0.0000, 0.0000, 0.0000, 0.0000, 0.0000, -0.9458, -0.0515, -0.2578, 0.1906, -0.0137, 0.0050, -0.0043, 0.0000, 0.0000, 0.0000, 0.0000
0, 2.1050, 408, -0.4657, 0.1889, -0.8660, 0.0593, -0.0622, -0.6523, 0.0000, 0.0000, 0.0000, 0.0000, 0.0000, 0.0000, -0.9458, -0.0514, -0.2577, 0.1906, 0.0022, -0.0066, -0.0041, 0.0000, 0.0000, 0.0000, 0.0000
0, 2.1100, 409, -0.4698, 0.1926, -0.8776, 0.2538, 0.0758, -0.8632, 0.0000, 0.0000, 0.0000, 0.0000, 0.0000, 0.0000, -0.9459, -0.0514, -0.2576, 0.1906, -0.0021, -0.0029, -0.0156, 0.0000, 0.0000, 0.0000, 0.0000
0, 2.1150, 410, -0.4617, 0.1849, -0.8698, -0.3317, -0.2011, -0.1654, 0.0000, 0.0000, 0.0000, 0.0000, 0.0000, 0.0000, -0.9459, -0.0514, -0.2575, 0.1906, 0.0059, -0.0105, -0.0077, 0.0000, 0.0000, 0.0000, 0.0000
0, 2.1200, 411, -0.4659, 0.1886, -0.8814, 0.1186, 0.2757, -0.7967, 0.0000, 0.0000, 0.0000, 0.0000, 0.0000, 0.0000, -0.9459, -0.0513, -0.2574, 0.1906, 0.0016, -0.0066, -0.0192, 0.0000, 0.0000, 0.0000, 0.0000
0, 2.1250, 412, -0.4735, 0.1890, -0.8583, 0.3243, -0.0473, -0.4540, 0.0000, 0.0000, 0.0000, 0.0000, 0.0000, 0.0000, -0.9459, -0.0512, -0.2575, 0.1906, -0.0059, -0.0059, 0.0038, 0.0000, 0.0000, 0.0000, 0.0000
0, 2.1300, 413, -0.4739, 0.1846, -0.8814, -0.1314, -0.4762, -0.6396, 0.0000, 0.0000, 0.0000, 0.0000, 0.0000, 0.0000, -0.9459, -0.0511, -0.2575, 0.1906, -0.0062, -0.0101, -0.0192, 0.0000, 0.0000, 0.0000, 0.0000
0, 2.1350, 414, -0.4697, 0.1928, -0.8661, 0.0492, 0.5509, -0.5292, 0.0000, 0.0000, 0.0000, 0.0000, 0.0000, 0.0000, -0.9459, -0.0511, -0.2575, 0.1905, -0.0021, -0.0020, -0.0039, 0.0000, 0.0000, 0.0000, 0.0000
0, 2.1400, 415, -0.4816, 0.2006, -0.8623, -0.3322, -0.1300, -0.0309, 0.0000, 0.0000, 0.0000, 0.0000, 0.0000, 0.0000, -0.9459, -0.0511, -0.2576, 0.1905, -0.0137, 0.0058, -0.0003, 0.0000, 0.0000, 0.0000, 0.0000
0, 2.1450, 416, -0.4777, 0.1888, -0.8660, -0.0058, -0.1341, -0.7175, 0.0000, 0.0000, 0.0000, 0.0000, 0.0000, 0.0000, -0.9459, -0.0511, -0.2576, 0.1905, -0.0097, -0.0059, -0.0040, 0.0000, 0.0000, 0.0000, 0.0000
0, 2.1500, 417, -0.4695, 0.1812, -0.8583, 0.0588, -0.1383, -0.9907, 0.0000, 0.0000, 0.0000, 0.0000, 0.0000, 0.0000, -0.9459, -0.0510, -0.2577, 0.1905, -0.0014, -0.0134, 0.0037, 0.0000, 0.0000, 0.0000, 0.0000
0, 2.1550, 418, -0.4778, 0.2044, -0.8700, 0.0556, 0.2137, -0.4541, 0.0000, 0.0000, 0.0000, 0.0000, 0.0000, 0.0000, -0.9459, -0.0509, -0.2577, 0.1905, -0.0097, 0.0099, -0.0080, 0.0000, 0.0000, 0.0000, 0.0000
0, 2.1600, 419, -0.4736, 0.1811, -0.8621, -0.1444, 0.1236, -1.0602, 0.0000, 0.0000, 0.0000, 0.0000, 0.0000, 0.0000, -0.9459, -0.0508, -0.2578, 0.1904, -0.0053, -0.0132, -0.0001, 0.0000, 0.0000, 0.0000, 0.0000
0, 2.1650, 420, -0.4737, 0.1927, -0.8699, -0.7286, -0.0739, 0.1120, 0.0000, 0.0000, 0.0000, 0.0000, 0.0000, 0.0000, -0.9459, -0.0508, -0.2577, 0.1904, -0.0055, -0.0015, -0.0079, 0.0000, 0.0000, 0.0000, 0.0000
0, 2.1700, 421, -0.4578, 0.2006, -0.8700, 0.0612, 0.0931, 0.1604, 0.0000, 0.0000, 0.0000, 0.0000, 0.0000, 0.0000, -0.9460, -0.0509, -0.2576, 0.1904, 0.0101, 0.0063, -0.0078, 0.0000, 0.0000, 0.0000, 0.0000
0, 2.1750, 422, -0.4818, 0.2004, -0.8738, -0.6644, -0.0797, -0.2292, 0.0000, 0.0000, 0.0000, 0.0000, 0.0000, 0.0000, -0.9459, -0.0509, -0.2576, 0.1904, -0.0138, 0.0060, -0.0118, 0.0000, 0.0000, 0.0000, 0.0000
0, 2.1800, 423, -0.4857, 0.1887, -0.8699, -1.1242, -0.2343, -0.2846, 0.0000, 0.0000, 0.0000, 0.0000, 0.0000, 0.0000, -0.9459, -0.0509, -0.2577, 0.1903, -0.0176, -0.0057, -0.0079, 0.0000, 0.0000, 0.0000, 0.0000
0, 2.1850, 424, -0.4616, 0.1969, -0.8584, -0.2011, -0.2027, -0.4400, 0.0000, 0.0000, 0.0000, 0.0000, 0.0000, 0.0000, -0.9459, -0.0510, -0.2576, 0.1903, 0.0064, 0.0024, 0.0036, 0.0000, 0.0000, 0.0000, 0.0000
0, 2.1900, 425, -0.4656, 0.1929, -0.8622, 0.1327, -0.3919, -0.3747, 0.0000, 0.0000, 0.0000, 0.0000, 0.0000, 0.0000, -0.9460, -0.0509, -0.2576, 0.1903, 0.0024, -0.0015, -0.0001, 0.0000, 0.0000, 0.0000, 0.0000
0, 2.1950, 426, -0.4696, 0.1850, -0.8660, -0.2716, 0.0675, -0.3763, 0.0000, 0.0000, 0.0000, 0.0000, 0.0000, 0.0000, -0.9460, -0.0508, -0.2576, 0.1903, -0.0016, -0.0092, -0.0039, 0.0000, 0.0000, 0.0000, 0.0000
0, 2.2000, 427, -0.4815, 0.1890, -0.8583, -0.0745, 0.1443, -0.3140, 0.0000, 0.0000, 0.0000, 0.0000, 0.0000, 0.0000, -0.9459, -0.0508, -0.2577, 0.1903, -0.0133, -0.0051, 0.0037, 0.0000, 0.0000, 0.0000, 0.0000
0, 2.2050, 428, -0.4697, 0.1888, -0.8699, -0.2668, -0.2036, -0.3706, 0.0000, 0.0000, 0.0000, 0.0000, 0.0000, 0.0000, -0.9460, -0.0507, -0.2577, 0.1902, -0.0015, -0.0052, -0.0078, 0.0000, 0.0000, 0.0000, 0.0000
0, 2.2100, 429, -0.4619, 0.1964, -0.8815, -0.9928, -0.3053, -0.6258, 0.0000, 0.0000, 0.0000, 0.0000, 0.0000, 0.0000, -0.9460, -0.0507, -0.2576, 0.1902, 0.0062, 0.0024, -0.0194, 0.0000, 0.0000, 0.0000, 0.0000
0, 2.2150, 430, -0.4698, 0.1887, -0.8737, -0.0685, -0.1945, -0.3069, 0.0000, 0.0000, 0.0000, 0.0000, 0.0000, 0.0000, -0.9460, -0.0507, -0.2576, 0.1902, -0.0016, -0.0052, -0.0116, 0.0000, 0.0000, 0.0000, 0.0000
0, 2.2200, 431, -0.4617, 0.1967, -0.8700, -0.0085, 0.1468, -0.3154, 0.0000, 0.0000, 0.0000, 0.0000, 0.0000, 0.0000, -0.9460, -0.0508, -0.2575, 0.1902, 0.0062, 0.0026, -0.0078, 0.0000, 0.0000, 0.0000, 0.0000
0, 2.2250, 432, -0.4618, 0.2006, -0.8700, -0.0728, 0.0055, -0.4471, 0.0000, 0.0000, 0.0000, 0.0000, 0.0000, 0.0000, -0.9460, -0.0508, -0.2574, 0.1901, 0.0060, 0.0065, -0.0077, 0.0000, 0.0000, 0.0000, 0.0000
0, 2.2300, 433, -0.4617, 0.1967, -0.8661, -0.2091, 0.4203, 0.0909, 0.0000, 0.0000, 0.0000, 0.0000, 0.0000, 0.0000, -0.9461, -0.0508, -0.2574, 0.1901, 0.0060, 0.0028, -0.0037, 0.0000, 0.0000, 0.0000, 0.0000
0, 2.2400, 434, -0.4856, 0.1967, -0.8623, -0.2742, 0.1286, -0.6496, 0.0000, 0.0000, 0.0000, 0.0000, 0.0000, 0.0000, -0.9460, -0.0508, -0.2575, 0.1901, -0.0177, 0.0027, -0.0001, 0.0000, 0.0000, 0.0000, 0.0000
0, 2.2450, 435, -0.4857, 0.1927, -0.8661, -0.8010, 0.1136, -0.4346, 0.0000, 0.0000, 0.0000, 0.0000, 0.0000, 0.0000, -0.9460, -0.0508, -0.2576, 0.1901, -0.0175, -0.0013, -0.0040, 0.0000, 0.0000, 0.0000, 0.0000
0, 2.2500, 436, -0.4696, 0.1968, -0.8623, 0.1188, 0.3501, -0.5263, 0.0000, 0.0000, 0.0000, 0.0000, 0.0000, 0.0000, -0.9460, -0.0508, -0.2576, 0.1900, -0.0015, 0.0027, -0.0002, 0.0000, 0.0000, 0.0000, 0.0000
0, 2.2550, 437, -0.4696, 0.1889, -0.8622, -0.0702, -0.2027, -0.6467, 0.0000, 0.0000, 0.0000, 0.0000, 0.0000, 0.0000, -0.9460, -0.0507, -0.2577, 0.1900, -0.0013, -0.0048, -0.0001, 0.0000, 0.0000, 0.0000, 0.0000
0, 2.2600, 438, -0.4777, 0.1927, -0.8699, -0.4055, 0.3467, 0.1645, 0.0000, 0.0000, 0.0000, 0.0000, 0.0000, 0.0000, -0.9460, -0.0507, -0.2577, 0.1900, -0.0094, -0.0011, -0.0079, 0.0000, 0.0000, 0.0000, 0.0000
0, 2.2650, 439, -0.4659, 0.1886, -0.8814, -0.2058, -0.0044, -0.6482, 0.0000, 0.0000, 0.0000, 0.0000, 0.0000, 0.0000, -0.9460, -0.0506, -0.2576, 0.1900, 0.0024, -0.0051, -0.0193, 0.0000, 0.0000, 0.0000, 0.0000
0, 2.2700, 440, -0.4697, 0.1966, -0.8700, -0.4756, 0.2517, -0.8522, 0.0000, 0.0000, 0.0000, 0.0000, 0.0000, 0.0000, -0.9460, -0.0506, -0.2576, 0.1899, -0.0016, 0.0030, -0.0078, 0.0000, 0.0000, 0.0000, 0.0000
0, 2.2750, 441, -0.4575, 0.1852, -0.8583, -0.0744, -0.0755, -0.9893, 0.0000, 0.0000, 0.0000, 0.0000, 0.0000, 0.0000, -0.9461, -0.0507, -0.2576, 0.1899, 0.0106, -0.0085, 0.0039, 0.0000, 0.0000, 0.0000, 0.0000
0, 2.2800, 442, -0.4735, 0.1852, -0.8545, -0.3374, -0.0078, -0.5774, 0.0000, 0.0000, 0.0000, 0.0000, 0.0000, 0.0000, -0.9461, -0.0506, -0.2576, 0.1899, -0.0053, -0.0083, 0.0077, 0.0000, 0.0000, 0.0000, 0.0000
0, 2.2850, 443, -0.4737, 0.1927, -0.8699, 0.1310, -0.2531, -0.2416, 0.0000, 0.0000, 0.0000, 0.0000, 0.0000, 0.0000, -0.9461, -0.0505, -0.2576, 0.1899, -0.0055, -0.0006, -0.0077, 0.0000, 0.0000, 0.0000, 0.0000
0, 2.2900, 444, -0.4820, 0.1883, -0.8929, 0.0712, -0.6671, -0.4356, 0.0000, 0.0000, 0.0000, 0.0000, 0.0000, 0.0000, -0.9461, -0.0504, -0.2575, 0.1898, -0.0139, -0.0049, -0.0307, 0.0000, 0.0000, 0.0000, 0.0000
0, 2.2950, 445, -0.4820, 0.1963, -0.8853, -0.2046, -0.0722, -0.6467, 0.0000, 0.0000, 0.0000, 0.0000, 0.0000, 0.0000, -0.9461, -0.0504, -0.2576, 0.1898, -0.0137, 0.0032, -0.0231, 0.0000, 0.0000, 0.0000, 0.0000
0, 2.3000, 446, -0.4738, 0.1926, -0.8738, 0.1931, -0.0490, -0.3153, 0.0000, 0.0000, 0.0000, 0.0000, 0.0000, 0.0000, -0.9461, -0.0504, -0.2576, 0.1898, -0.0055, -0.0005, -0.0115, 0.0000, 0.0000, 0.0000, 0.0000
0, 2.3050, 447, -0.4699, 0.1964, -0.8815, -0.6583, -0.2714, 0.2508, 0.0000, 0.0000, 0.0000, 0.0000, 0.0000, 0.0000, -0.9461, -0.0504, -0.2576, 0.1898, -0.0017, 0.0032, -0.0192, 0.0000, 0.0000, 0.0000, 0.0000
0, 2.3100, 448, -0.4736, 0.2008, -0.8585, -0.4073, 0.3385, -0.1754, 0.0000, 0.0000, 0.0000, 0.0000, 0.0000, 0.0000, -0.9461, -0.0504, -0.2576, 0.1898, -0.0054, 0.0076, 0.0038, 0.0000, 0.0000, 0.0000, 0.0000
0, 2.3150, 449, -0.4856, 0.1929, -0.8584, -0.1437, 0.1269, -0.9242, 0.0000, 0.0000, 0.0000, 0.0000, 0.0000, 0.0000, -0.9461, -0.0504, -0.2576, 0.1898, -0.0172, -0.0002, 0.0038, 0.0000, 0.0000, 0.0000, 0.0000
0, 2.3200, 450, -0.4659, 0.1964, -0.8815, -0.0724, 0.0072, -0.3791, 0.0000, 0.0000, 0.0000, 0.0000, 0.0000, 0.0000, -0.9461, -0.0505, -0.2575, 0.1898, 0.0022, 0.0031, -0.0192, 0.0000, 0.0000, 0.0000, 0.0000
0, 2.3250, 451, -0.4619, 0.2004, -0.8777, -0.3301, -0.2672, -0.0960, 0.0000, 0.0000, 0.0000, 0.0000, 0.0000, 0.0000, -0.9461, -0.0506, -0.2575, 0.1897, 0.0061, 0.0070, -0.0154, 0.0000, 0.0000, 0.0000, 0.0000
0, 2.3300, 452, -0.4696, 0.2007, -0.8623, -0.4694, -0.0127, -0.5746, 0.0000, 0.0000, 0.0000, 0.0000, 0.0000, 0.0000, -0.9462, -0.0505, -0.2574, 0.1897, -0.0018, 0.0075, 0.0001, 0.0000, 0.0000, 0.0000, 0.0000
0, 2.3350, 453, -0.4697, 0.1967, -0.8661, -0.1294, -0.3936, -0.0293, 0.0000, 0.0000, 0.0000, 0.0000, 0.0000, 0.0000, -0.9462, -0.0505, -0.2573, 0.1897, -0.0019, 0.0035, -0.0036, 0.0000, 0.0000, 0.0000, 0.0000
0, 2.3400, 454, -0.4737, 0.1928, -0.8661, -0.3978, -0.1309, 0.0385, 0.0000, 0.0000, 0.0000, 0.0000, 0.0000, 0.0000, -0.9462, -0.0504, -0.2574, 0.1897, -0.0056, -0.0002, -0.0037, 0.0000, 0.0000, 0.0000, 0.0000
0, 2.3450, 455, -0.4739, 0.1965, -0.8776, -0.5951, -0.1350, 0.1786, 0.0000, 0.0000, 0.0000, 0.0000, 0.0000, 0.0000, -0.9462, -0.0504, -0.2574, 0.1897, -0.0059, 0.0035, -0.0152, 0.0000, 0.0000, 0.0000, 0.0000
0, 2.3500, 456, -0.4818, 0.1965, -0.8738, -0.3997, -0.2862, -0.7742, 0.0000, 0.0000, 0.0000, 0.0000, 0.0000, 0.0000, -0.9462, -0.0504, -0.2574, 0.1897, -0.0138, 0.0034, -0.0114, 0.0000, 0.0000, 0.0000, 0.0000
0, 2.3550, 457, -0.4700, 0.2081, -0.8855, -0.3881, -0.5258, 0.5228, 0.0000, 0.0000, 0.0000, 0.0000, 0.0000, 0.0000, -0.9462, -0.0505, -0.2574, 0.1896, -0.0020, 0.0150, -0.0231, 0.0000, 0.0000, 0.0000, 0.0000
0, 2.3600, 458, -0.4737, 0.1967, -0.8661, -0.4708, 0.3475, 0.3018, 0.0000, 0.0000, 0.0000, 0.0000, 0.0000, 0.0000, -0.9462, -0.0505, -0.2574, 0.1896, -0.0057, 0.0034, -0.0038, 0.0000, 0.0000, 0.0000, 0.0000
0, 2.3650, 459, -0.4818, 0.2044, -0.8700, -0.5348, 0.0608, -0.2348, 0.0000, 0.0000, 0.0000, 0.0000, 0.0000, 0.0000, -0.9461, -0.0506, -0.2575, 0.1896, -0.0137, 0.0111, -0.0078, 0.0000, 0.0000, 0.0000, 0.0000
0, 2.3700, 460, -0.4779, 0.2003, -0.8815, -0.1298, -0.3952, -0.0973, 0.0000, 0.0000, 0.0000, 0.0000, 0.0000, 0.0000, -0.9461, -0.0505, -0.2576, 0.1896, -0.0097, 0.0070, -0.0193, 0.0000, 0.0000, 0.0000, 0.0000
0, 2.3750, 461, -0.4619, 0.1924, -0.8853, -0.5207, -0.7539, -0.2857, 0.0000, 0.0000, 0.0000, 0.0000, 0.0000, 0.0000, -0.9461, -0.0505, -0.2575, 0.1896, 0.0061, -0.0008, -0.0230, 0.0000, 0.0000, 0.0000, 0.0000
0, 2.3800, 462, -0.4736, 0.2007, -0.8623, -0.6617, -0.1408, 0.0441, 0.0000, 0.0000, 0.0000, 0.0000, 0.0000, 0.0000, -0.9461, -0.0505, -0.2575, 0.1896, -0.0055, 0.0074, -0.0001, 0.0000, 0.0000, 0.0000, 0.0000
0, 2.3850, 463, -0.4538, 0.2006, -0.8700, -0.3990, -0.0631, 0.0371, 0.0000, 0.0000, 0.0000, 0.0000, 0.0000, 0.0000, -0.9462, -0.0507, -0.2574, 0.1896, 0.0142, 0.0071, -0.0077, 0.0000, 0.0000, 0.0000, 0.0000
0, 2.3900, 464, -0.4777, 0.1888, -0.8699, -0.0730, -0.0689, -0.7175, 0.0000, 0.0000, 0.0000, 0.0000, 0.0000, 0.0000, -0.9462, -0.0507, -0.2575, 0.1895, -0.0097, -0.0047, -0.0076, 0.0000, 0.0000, 0.0000, 0.0000
0, 2.3950, 465, -0.4697, 0.1967, -0.8661, -0.1316, -0.1837, 0.2382, 0.0000, 0.0000, 0.0000, 0.0000, 0.0000, 0.0000, -0.9462, -0.0507, -0.2575, 0.1895, -0.0016, 0.0032, -0.0038, 0.0000, 0.0000, 0.0000, 0.0000
0, 2.4000, 466, -0.4579, 0.2004, -0.8815, -0.4653, -0.2871, -0.7049, 0.0000, 0.0000, 0.0000, 0.0000, 0.0000, 0.0000, -0.9462, -0.0508, -0.2574, 0.1895, 0.0099, 0.0067, -0.0192, 0.0000, 0.0000, 0.0000, 0.0000
0, 2.4050, 467, -0.4815, 0.1930, -0.8545, -0.7864, -0.7721, -0.6200, 0.0000, 0.0000, 0.0000, 0.0000, 0.0000, 0.0000, -0.9462, -0.0508, -0.2575, 0.1895, -0.0136, -0.0007, 0.0077, 0.0000, 0.0000, 0.0000, 0.0000
0, 2.4100, 468, -0.4579, 0.2004, -0.8815, 0.1313, -0.3985, -0.6466, 0.0000, 0.0000, 0.0000, 0.0000, 0.0000, 0.0000, -0.9462, -0.0508, -0.2574, 0.1895, 0.0099, 0.0066, -0.0192, 0.0000, 0.0000, 0.0000, 0.0000
0, 2.4150, 469, -0.4577, 0.2046, -0.8624, -0.2752, 0.2707, -0.3806, 0.0000, 0.0000, 0.0000, 0.0000, 0.0000, 0.0000, -0.9462, -0.0509, -0.2574, 0.1894, 0.0102, 0.0108, -0.0001, 0.0000, 0.0000, 0.0000, 0.0000
0, 2.4200, 470, -0.4777, 0.1928, -0.8661, -0.6626, -0.0714, 0.1106, 0.0000, 0.0000, 0.0000, 0.0000, 0.0000, 0.0000, -0.9462, -0.0509, -0.2574, 0.1894, -0.0098, -0.0012, -0.0038, 0.0000, 0.0000, 0.0000, 0.0000
0, 2.4250, 471, -0.4697, 0.1928, -0.8661, -0.2719, 0.0658, -0.4443, 0.0000, 0.0000, 0.0000, 0.0000, 0.0000, 0.0000, -0.9462, -0.0509, -0.2574, 0.1894, -0.0019, -0.0011, -0.0037, 0.0000, 0.0000, 0.0000, 0.0000
0, 2.4300, 472, -0.4739, 0.1964, -0.8815, -0.2056, 0.0699, -0.3777, 0.0000, 0.0000, 0.0000, 0.0000, 0.0000, 0.0000, -0.9462, -0.0509, -0.2574, 0.1894, -0.0062, 0.0025, -0.0191, 0.0000, 0.0000, 0.0000, 0.0000
0, 2.4350, 473, -0.4657, 0.1967, -0.8661, -0.7362, 0.1839, -0.4374, 0.0000, 0.0000, 0.0000, 0.0000, 0.0000, 0.0000, -0.9462, -0.0509, -0.2574, 0.1894, 0.0021, 0.0028, -0.0038, 0.0000, 0.0000, 0.0000, 0.0000
0, 2.4400, 474, -0.4701, 0.2041, -0.8893, -0.0719, -0.0639, -0.5136, 0.0000, 0.0000, 0.0000, 0.0000, 0.0000, 0.0000, -0.9462, -0.0510, -0.2573, 0.1893, -0.0024, 0.0101, -0.0269, 0.0000, 0.0000, 0.0000, 0.0000
0, 2.4450, 475, -0.4775, 0.1969, -0.8546, -0.1367, -0.1341, -0.5108, 0.0000, 0.0000, 0.0000, 0.0000, 0.0000, 0.0000, -0.9462, -0.0511, -0.2574, 0.1893, -0.0097, 0.0028, 0.0077, 0.0000, 0.0000, 0.0000, 0.0000
0, 2.4500, 476, -0.4618, 0.2044, -0.8739, 0.0657, -0.3994, -0.5772, 0.0000, 0.0000, 0.0000, 0.0000, 0.0000, 0.0000, -0.9462, -0.0512, -0.2574, 0.1893, 0.0059, 0.0101, -0.0116, 0.0000, 0.0000, 0.0000, 0.0000
0, 2.4550, 477, -0.4659, 0.2083, -0.8739, -0.7280, -0.3648, -0.6979, 0.0000, 0.0000, 0.0000, 0.0000, 0.0000, 0.0000, -0.9462, -0.0512, -0.2574, 0.1893, 0.0018, 0.0140, -0.0116, 0.0000, 0.0000, 0.0000, 0.0000
0, 2.4600, 478, -0.4619, 0.2004, -0.8777, -0.0086, -0.0003, -0.7883, 0.0000, 0.0000, 0.0000, 0.0000, 0.0000, 0.0000, -0.9462, -0.0512, -0.2573, 0.1892, 0.0057, 0.0062, -0.0153, 0.0000, 0.0000, 0.0000, 0.0000
0, 2.4650, 479, -0.4777, 0.1967, -0.8661, -0.9282, 0.0575, 0.2493, 0.0000, 0.0000, 0.0000, 0.0000, 0.0000, 0.0000, -0.9462, -0.0512, -0.2573, 0.1892, -0.0101, 0.0024, -0.0038, 0.0000, 0.0000, 0.0000, 0.0000
0, 2.4700, 480, -0.4699, 0.1925, -0.8814, -0.0004, -0.1820, 0.0995, 0.0000, 0.0000, 0.0000, 0.0000, 0.0000, 0.0000, -0.9462, -0.0511, -0.2573, 0.1892, -0.0023, -0.0017, -0.0191, 0.0000, 0.0000, 0.0000, 0.0000
0, 2.4750, 481, -0.4657, 0.1888, -0.8699, -0.0670, -0.1878, -0.0350, 0.0000, 0.0000, 0.0000, 0.0000, 0.0000, 0.0000, -0.9463, -0.0511, -0.2572, 0.1892, 0.0018, -0.0053, -0.0074, 0.0000, 0.0000, 0.0000, 0.0000
0, 2.4800, 482, -0.4776, 0.1928, -0.8622, -0.2056, 0.0699, -0.3777, 0.0000, 0.0000, 0.0000, 0.0000, 0.0000, 0.0000, -0.9462, -0.0511, -0.2573, 0.1892, -0.0100, -0.0013, 0.0001, 0.0000, 0.0000, 0.0000, 0.0000
0, 2.4850, 483, -0.4777, 0.1927, -0.8699, -0.4642, -0.2821, -0.5010, 0.0000, 0.0000, 0.0000, 0.0000, 0.0000, 0.0000, -0.9462, -0.0511, -0.2574, 0.1892, -0.0100, -0.0014, -0.0076, 0.0000, 0.0000, 0.0000, 0.0000
0, 2.4900, 484, -0.4738, 0.2044, -0.8739, -0.3434, 0.3310, -0.5845, 0.0000, 0.0000, 0.0000, 0.0000, 0.0000, 0.0000, -0.9462, -0.0511, -0.2574, 0.1892, -0.0061, 0.0102, -0.0116, 0.0000, 0.0000, 0.0000, 0.0000
0, 2.4950, 485, -0.4617, 0.1967, -0.8661, -0.4005, -0.2168, -0.7077, 0.0000, 0.0000, 0.0000, 0.0000, 0.0000, 0.0000, -0.9463, -0.0512, -0.2573, 0.1891, 0.0059, 0.0025, -0.0038, 0.0000, 0.0000, 0.0000, 0.0000
0, 2.5000, 486, -0.4777, 0.1928, -0.8661, -0.4641, 0.0121, 0.4448, 0.0000, 0.0000, 0.0000, 0.0000, 0.0000, 0.0000, -0.9463, -0.0511, -0.2573, 0.1891, -0.0101, -0.0013, -0.0037, 0.0000, 0.0000, 0.0000, 0.0000
0, 2.5050, 487, -0.4617, 0.2046, -0.8662, -0.3312, -0.2722, -0.2999, 0.0000, 0.0000, 0.0000, 0.0000, 0.0000, 0.0000, -0.9463, -0.0512, -0.2573, 0.1891, 0.0058, 0.0103, -0.0038, 0.0000, 0.0000, 0.0000, 0.0000
0, 2.5100, 488, -0.4657, 0.1927, -0.8699, -0.2594, -0.6828, -0.5646, 0.0000, 0.0000, 0.0000, 0.0000, 0.0000, 0.0000, -0.9463, -0.0512, -0.2573, 0.1891, 0.0018, -0.0014, -0.0075, 0.0000, 0.0000, 0.0000, 0.0000
0, 2.5150, 489, -0.4736, 0.2007, -0.8623, -0.6583, -0.4185, -0.2221, 0.0000, 0.0000, 0.0000, 0.0000, 0.0000, 0.0000, -0.9463, -0.0511, -0.2573, 0.1891, -0.0060, 0.0066, 0.0000, 0.0000, 0.0000, 0.0000, 0.0000
0, 2.5200, 490, -0.4778, 0.2004, -0.8738, -1.1820, -0.5656, 0.1317, 0.0000, 0.0000, 0.0000, 0.0000, 0.0000, 0.0000, -0.9462, -0.0512, -0.2574, 0.1891, -0.0100, 0.0062, -0.0116, 0.0000, 0.0000, 0.0000, 0.0000
0, 2.5250, 491, -0.4736, 0.1968, -0.8584, -1.4526, -0.4599, -0.6811, 0.0000, 0.0000, 0.0000, 0.0000, 0.0000, 0.0000, -0.9462, -0.0513, -0.2575, 0.1890, -0.0057, 0.0024, 0.0037, 0.0000, 0.0000, 0.0000, 0.0000
0, 2.5300, 492, -0.4698, 0.1966, -0.8738, -0.8603, -0.2243, -0.2902, 0.0000, 0.0000, 0.0000, 0.0000, 0.0000, 0.0000, -0.9462, -0.0513, -0.2575, 0.1890, -0.0019, 0.0020, -0.0117, 0.0000, 0.0000, 0.0000, 0.0000
0, 2.5350, 493, -0.4738, 0.2005, -0.8700, -0.5424, 0.4657, -0.3113, 0.0000, 0.0000, 0.0000, 0.0000, 0.0000, 0.0000, -0.9462, -0.0514, -0.2575, 0.1890, -0.0059, 0.0059, -0.0079, 0.0000, 0.0000, 0.0000, 0.0000
0, 2.5400, 494, -0.4896, 0.1889, -0.8622, -0.1955, -0.3234, 0.1745, 0.0000, 0.0000, 0.0000, 0.0000, 0.0000, 0.0000, -0.9462, -0.0514, -0.2576, 0.1890, -0.0216, -0.0057, -0.0001, 0.0000, 0.0000, 0.0000, 0.0000
0, 2.5450, 495, -0.4655, 0.1890, -0.8583, -0.1406, 0.2146, -0.1101, 0.0000, 0.0000, 0.0000, 0.0000, 0.0000, 0.0000, -0.9462, -0.0513, -0.2576, 0.1890, 0.0025, -0.0055, 0.0037, 0.0000, 0.0000, 0.0000, 0.0000
0, 2.5500, 496, -0.4775, 0.1970, -0.8507, -0.0664, -0.3316, -0.3720, 0.0000, 0.0000, 0.0000, 0.0000, 0.0000, 0.0000, -0.9462, -0.0514, -0.2577, 0.1890, -0.0093, 0.0023, 0.0112, 0.0000, 0.0000, 0.0000, 0.0000
0, 2.5550, 497, -0.4778, 0.2044, -0.8739, -0.7986, -0.0219, -0.4317, 0.0000, 0.0000, 0.0000, 0.0000, 0.0000, 0.0000, -0.9462, -0.0515, -0.2576, 0.1890, -0.0097, 0.0096, -0.0119, 0.0000, 0.0000, 0.0000, 0.0000
0, 2.5600, 498, -0.4817, 0.2046, -0.8624, -0.6687, 0.1203, -0.3694, 0.0000, 0.0000, 0.0000, 0.0000, 0.0000, 0.0000, -0.9462, -0.0516, -0.2577, 0.1889, -0.0135, 0.0096, -0.0005, 0.0000, 0.0000, 0.0000, 0.0000
0, 2.5650, 499, -0.4737, 0.2006, -0.8662, 0.1886, 0.2237, -0.2530, 0.0000, 0.0000, 0.0000, 0.0000, 0.0000, 0.0000, -0.9462, -0.0515, -0.2578, 0.1889, -0.0054, 0.0057, -0.0044, 0.0000, 0.0000, 0.0000, 0.0000
0, 2.5700, 500, -0.4899, 0.1964, -0.8776, -0.0770, 0.1327, -0.7897, 0.0000, 0.0000, 0.0000, 0.0000, 0.0000, 0.0000, -0.9461, -0.0515, -0.2578, 0.1889, -0.0214, 0.0015, -0.0159, 0.0000, 0.0000, 0.0000, 0.0000
0, 2.5750, 501, -0.4698, 0.2005, -0.8738, -0.4113, 0.5401, -0.2476, 0.0000, 0.0000, 0.0000, 0.0000, 0.0000, 0.0000, -0.9461, -0.0515, -0.2579, 0.1889, -0.0013, 0.0055, -0.0121, 0.0000, 0.0000, 0.0000, 0.0000
0, 2.5800, 502, -0.4736, 0.1850, -0.8621, -0.2103, 0.2682, -0.5859, 0.0000, 0.0000, 0.0000, 0.0000, 0.0000, 0.0000, -0.9461, -0.0515, -0.2579, 0.1888, -0.0051, -0.0098, -0.0005, 0.0000, 0.0000, 0.0000, 0.0000
0, 2.5850, 503, -0.4777, 0.2085, -0.8624, -0.2680, -0.1358, -0.3721, 0.0000, 0.0000, 0.0000, 0.0000, 0.0000, 0.0000, -0.9461, -0.0516, -0.2579, 0.1888, -0.0091, 0.0135, -0.0008, 0.0000, 0.0000, 0.0000, 0.0000
0, 2.5900, 504, -0.4696, 0.2087, -0.8547, -0.4012, -0.2201, -0.8436, 0.0000, 0.0000, 0.0000, 0.0000, 0.0000, 0.0000, -0.9461, -0.0516, -0.2580, 0.1888, -0.0009, 0.0136, 0.0069, 0.0000, 0.0000, 0.0000, 0.0000
0, 2.5950, 505, -0.4778, 0.1965, -0.8738, 0.1897, 0.2286, -0.0491, 0.0000, 0.0000, 0.0000, 0.0000, 0.0000, 0.0000, -0.9461, -0.0516, -0.2580, 0.1888, -0.0090, 0.0015, -0.0123, 0.0000, 0.0000, 0.0000, 0.0000
0, 2.6000, 506, -0.4736, 0.1968, -0.8623, 0.2524, 0.0692, -1.1351, 0.0000, 0.0000, 0.0000, 0.0000, 0.0000, 0.0000, -0.9461, -0.0517, -0.2582, 0.1887, -0.0047, 0.0015, -0.0009, 0.0000, 0.0000, 0.0000, 0.0000
0, 2.6050, 507, -0.4659, 0.1925, -0.8814, -0.5332, -0.0053, -0.1655, 0.0000, 0.0000, 0.0000, 0.0000, 0.0000, 0.0000, -0.9461, -0.0517, -0.2582, 0.1887, 0.0031, -0.0028, -0.0201, 0.0000, 0.0000, 0.0000, 0.0000
0, 2.6100, 508, -0.4816, 0.1928, -0.8622, -0.5919, -0.2672, 0.3174, 0.0000, 0.0000, 0.0000, 0.0000, 0.0000, 0.0000, -0.9461, -0.0517, -0.2582, 0.1887, -0.0127, -0.0024, -0.0009, 0.0000, 0.0000, 0.0000, 0.0000
0, 2.6150, 509, -0.4658, 0.2006, -0.8700, -0.3350, -0.1433, -0.5746, 0.0000, 0.0000, 0.0000, 0.0000, 0.0000, 0.0000, -0.9461, -0.0517, -0.2581, 0.1887, 0.0031, 0.0053, -0.0086, 0.0000, 0.0000, 0.0000, 0.0000
0, 2.6200, 510, -0.4616, 0.1850, -0.8660, -0.1334, -0.1920, -0.1016, 0.0000, 0.0000, 0.0000, 0.0000, 0.0000, 0.0000, -0.9461, -0.0515, -0.2580, 0.1887, 0.0070, -0.0099, -0.0044, 0.0000, 0.0000, 0.0000, 0.0000
0, 2.6250, 511, -0.4656, 0.1850, -0.8622, -0.0061, 0.0113, -0.3125, 0.0000, 0.0000, 0.0000, 0.0000, 0.0000, 0.0000, -0.9462, -0.0514, -0.2578, 0.1887, 0.0028, -0.0096, -0.0003, 0.0000, 0.0000, 0.0000, 0.0000
0, 2.6300, 512, -0.4697, 0.2085, -0.8624, -0.5204, -0.7523, -0.2178, 0.0000, 0.0000, 0.0000, 0.0000, 0.0000, 0.0000, -0.9462, -0.0515, -0.2577, 0.1887, -0.0014, 0.0138, -0.0005, 0.0000, 0.0000, 0.0000, 0.0000
0, 2.6350, 513, -0.4738, 0.1926, -0.8738, -0.2733, 0.2063, -0.2433, 0.0000, 0.0000, 0.0000, 0.0000, 0.0000, 0.0000, -0.9462, -0.0515, -0.2577, 0.1887, -0.0055, -0.0021, -0.0119, 0.0000, 0.0000, 0.0000, 0.0000
0, 2.6400, 514, -0.4776, 0.1929, -0.8584, -0.2069, 0.3575, 0.2962, 0.0000, 0.0000, 0.0000, 0.0000, 0.0000, 0.0000, -0.9462, -0.0515, -0.2578, 0.1887, -0.0092, -0.0018, 0.0034, 0.0000, 0.0000, 0.0000, 0.0000
0, 2.6450, 515, -0.4659, 0.1964, -0.8815, -0.0739, 0.2203, 0.0244, 0.0000, 0.0000, 0.0000, 0.0000, 0.0000, 0.0000, -0.9462, -0.0516, -0.2577, 0.1887, 0.0023, 0.0016, -0.0196, 0.0000, 0.0000, 0.0000, 0.0000
0, 2.6500, 516, -0.4696, 0.2008, -0.8585, -0.3344, 0.0798, 0.2367, 0.0000, 0.0000, 0.0000, 0.0000, 0.0000, 0.0000, -0.9462, -0.0517, -0.2577, 0.1887, -0.0014, 0.0057, 0.0033, 0.0000, 0.0000, 0.0000, 0.0000
0, 2.6550, 517, -0.4778, 0.2005, -0.8700, -0.4640, -0.2077, -0.2305, 0.0000, 0.0000, 0.0000, 0.0000, 0.0000, 0.0000, -0.9462, -0.0517, -0.2576, 0.1887, -0.0097, 0.0055, -0.0081, 0.0000, 0.0000, 0.0000, 0.0000
0, 2.6600, 518, -0.4697, 0.1928, -0.8661, -0.3267, -0.3977, 0.1108, 0.0000, 0.0000, 0.0000, 0.0000, 0.0000, 0.0000, -0.9462, -0.0517, -0.2576, 0.1887, -0.0016, -0.0022, -0.0042, 0.0000, 0.0000, 0.0000, 0.0000
0, 2.6650, 519, -0.4655, 0.1891, -0.8545, -0.3418, 0.4120, -0.0422, 0.0000, 0.0000, 0.0000, 0.0000, 0.0000, 0.0000, -0.9462, -0.0516, -0.2577, 0.1887, 0.0027, -0.0058, 0.0074, 0.0000, 0.0000, 0.0000, 0.0000
0, 2.6700, 520, -0.4776, 0.1928, -0.8622, -0.1479, 0.4740, -0.5915, 0.0000, 0.0000, 0.0000, 0.0000, 0.0000, 0.0000, -0.9462, -0.0516, -0.2577, 0.1886, -0.0094, -0.0020, -0.0003, 0.0000, 0.0000, 0.0000, 0.0000
0, 2.6750, 521, -0.4658, 0.2006, -0.8700, -0.7350, 0.2632, 0.0369, 0.0000, 0.0000, 0.0000, 0.0000, 0.0000, 0.0000, -0.9462, -0.0516, -0.2577, 0.1886, 0.0024, 0.0056, -0.0081, 0.0000, 0.0000, 0.0000, 0.0000
0, 2.6800, 522, -0.4695, 0.1851, -0.8583, -0.6128, 0.8830, 0.2252, 0.0000, 0.0000, 0.0000, 0.0000, 0.0000, 0.0000, -0.9462, -0.0517, -0.2578, 0.1886, -0.0011, -0.0099, 0.0034, 0.0000, 0.0000, 0.0000, 0.0000
0, 2.6850, 523, -0.4658, 0.1927, -0.8738, 0.1880, 0.3675, 0.0840, 0.0000, 0.0000, 0.0000, 0.0000, 0.0000, 0.0000, -0.9462, -0.0517, -0.2577, 0.1886, 0.0025, -0.0024, -0.0120, 0.0000, 0.0000, 0.0000, 0.0000
0, 2.6900, 524, -0.4775, 0.2009, -0.8508, -0.7984, 0.0525, -0.1613, 0.0000, 0.0000, 0.0000, 0.0000, 0.0000, 0.0000, -0.9462, -0.0517, -0.2578, 0.1886, -0.0091, 0.0058, 0.0109, 0.0000, 0.0000, 0.0000, 0.0000
0, 2.6950, 525, -0.4658, 0.2005, -0.8738, -0.8099, 0.8061, 0.1629, 0.0000, 0.0000, 0.0000, 0.0000, 0.0000, 0.0000, -0.9462, -0.0517, -0.2578, 0.1886, 0.0026, 0.0054, -0.0121, 0.0000, 0.0000, 0.0000, 0.0000
0, 2.7000, 526, -0.4615, 0.1891, -0.8584, -0.7318, 0.1310, 0.1757, 0.0000, 0.0000, 0.0000, 0.0000, 0.0000, 0.0000, -0.9462, -0.0518, -0.2578, 0.1886, 0.0068, -0.0063, 0.0034, 0.0000, 0.0000, 0.0000, 0.0000
0, 2.7050, 527, -0.4776, 0.1967, -0.8623, -0.2005, 0.0204, 0.3713, 0.0000, 0.0000, 0.0000, 0.0000, 0.0000, 0.0000, -0.9462, -0.0519, -0.2578, 0.1886, -0.0093, 0.0013, -0.0006, 0.0000, 0.0000, 0.0000, 0.0000
0, 2.7100, 528, -0.4616, 0.1968, -0.8623, -0.6714, 0.4012, 0.0327, 0.0000, 0.0000, 0.0000, 0.0000, 0.0000, 0.0000, -0.9462, -0.0520, -0.2578, 0.1886, 0.0066, 0.0012, -0.0006, 0.0000, 0.0000, 0.0000, 0.0000
0, 2.7150, 529, -0.4575, 0.2049, -0.8508, -0.3983, -0.0598, 0.1730, 0.0000, 0.0000, 0.0000, 0.0000, 0.0000, 0.0000, -0.9462, -0.0520, -0.2578, 0.1886, 0.0108, 0.0091, 0.0108, 0.0000, 0.0000, 0.0000, 0.0000
0, 2.7200, 530, -0.4736, 0.2008, -0.8585, -0.3348, -0.0689, -0.3041, 0.0000, 0.0000, 0.0000, 0.0000, 0.0000, 0.0000, -0.9462, -0.0521, -0.2578, 0.1886, -0.0053, 0.0050, 0.0032, 0.0000, 0.0000, 0.0000, 0.0000
0, 2.7250, 531, -0.4578, 0.2005, -0.8738, -0.3436, 0.4037, -0.3821, 0.0000, 0.0000, 0.0000, 0.0000, 0.0000, 0.0000, -0.9462, -0.0522, -0.2578, 0.1886, 0.0103, 0.0045, -0.0122, 0.0000, 0.0000, 0.0000, 0.0000
0, 2.7300, 532, -0.4696, 0.1929, -0.8584, -0.4724, 0.0468, -0.9159, 0.0000, 0.0000, 0.0000, 0.0000, 0.0000, 0.0000, -0.9462, -0.0521, -0.2578, 0.1886, -0.0013, -0.0030, 0.0032, 0.0000, 0.0000, 0.0000, 0.0000
0, 2.7350, 533, -0.4616, 0.1929, -0.8622, -0.0077, -0.0697, -0.8548, 0.0000, 0.0000, 0.0000, 0.0000, 0.0000, 0.0000, -0.9462, -0.0521, -0.2578, 0.1885, 0.0066, -0.0030, -0.0006, 0.0000, 0.0000, 0.0000, 0.0000
0, 2.7400, 534, -0.4657, 0.2046, -0.8624, -0.3395, 0.1294, -0.5123, 0.0000, 0.0000, 0.0000, 0.0000, 0.0000, 0.0000, -0.9462, -0.0521, -0.2578, 0.1885, 0.0026, 0.0087, -0.0008, 0.0000, 0.0000, 0.0000, 0.0000
0, 2.7450, 535, -0.4618, 0.1966, -0.8738, -0.6697, 0.1153, -0.5733, 0.0000, 0.0000, 0.0000, 0.0000, 0.0000, 0.0000, -0.9462, -0.0522, -0.2578, 0.1885, 0.0064, 0.0007, -0.0122, 0.0000, 0.0000, 0.0000, 0.0000
0, 2.7500, 536, -0.4697, 0.1967, -0.8661, -0.4047, 0.2773, 0.0979, 0.0000, 0.0000, 0.0000, 0.0000, 0.0000, 0.0000, -0.9462, -0.0522, -0.2578, 0.1885, -0.0015, 0.0008, -0.0045, 0.0000, 0.0000, 0.0000, 0.0000
0, 2.7550, 537, -0.4738, 0.2084, -0.8701, -0.1460, 0.4095, -0.4542, 0.0000, 0.0000, 0.0000, 0.0000, 0.0000, 0.0000, -0.9462, -0.0522, -0.2578, 0.1885, -0.0057, 0.0124, -0.0084, 0.0000, 0.0000, 0.0000, 0.0000
0, 2.7600, 538, -0.4698, 0.2045, -0.8700, -0.4020, -0.0036, -0.3042, 0.0000, 0.0000, 0.0000, 0.0000, 0.0000, 0.0000, -0.9462, -0.0523, -0.2577, 0.1885, -0.0017, 0.0083, -0.0084, 0.0000, 0.0000, 0.0000, 0.0000
0, 2.7650, 539, -0.4738, 0.1925, -0.8776, -0.7311, -0.0855, -0.3637, 0.0000, 0.0000, 0.0000, 0.0000, 0.0000, 0.0000, -0.9462, -0.0522, -0.2577, 0.1885, -0.0059, -0.0035, -0.0159, 0.0000, 0.0000, 0.0000, 0.0000
0, 2.7700, 540, -0.4818, 0.1965, -0.8738, -1.5939, 0.0788, -0.6218, 0.0000, 0.0000, 0.0000, 0.0000, 0.0000, 0.0000, -0.9462, -0.0523, -0.2577, 0.1884, -0.0138, 0.0005, -0.0121, 0.0000, 0.0000, 0.0000, 0.0000
0, 2.7750, 541, -0.4619, 0.2003, -0.8815, -0.7917, -0.4300, -0.4912, 0.0000, 0.0000, 0.0000, 0.0000, 0.0000, 0.0000, -0.9462, -0.0523, -0.2577, 0.1884, 0.0060, 0.0042, -0.0198, 0.0000, 0.0000, 0.0000, 0.0000
0, 2.7800, 542, -0.4659, 0.1924, -0.8853, -0.7930, -0.1425, 0.1828, 0.0000, 0.0000, 0.0000, 0.0000, 0.0000, 0.0000, -0.9463, -0.0524, -0.2576, 0.1884, 0.0018, -0.0038, -0.0235, 0.0000, 0.0000, 0.0000, 0.0000
0, 2.7850, 543, -0.4699, 0.1965, -0.8776, -1.0673, 0.2392, -0.4319, 0.0000, 0.0000, 0.0000, 0.0000, 0.0000, 0.0000, -0.9463, -0.0524, -0.2576, 0.1884, -0.0021, 0.0002, -0.0158, 0.0000, 0.0000, 0.0000, 0.0000
0, 2.7900, 544, -0.4736, 0.2008, -0.8585, -0.2021, 0.0865, 0.3019, 0.0000, 0.0000, 0.0000, 0.0000, 0.0000, 0.0000, -0.9462, -0.0525, -0.2577, 0.1884, -0.0058, 0.0044, 0.0033, 0.0000, 0.0000, 0.0000, 0.0000
0, 2.7950, 545, -0.4736, 0.1889, -0.8622, -0.0585, -0.7348, -0.2275, 0.0000, 0.0000, 0.0000, 0.0000, 0.0000, 0.0000, -0.9462, -0.0526, -0.2576, 0.1884, -0.0059, -0.0076, -0.0004, 0.0000, 0.0000, 0.0000, 0.0000
0, 2.8000, 546, -0.4656, 0.1929, -0.8622, -0.5967, -0.2160, -0.3637, 0.0000, 0.0000, 0.0000, 0.0000, 0.0000, 0.0000, -0.9462, -0.0526, -0.2576, 0.1884, 0.0021, -0.0037, -0.0005, 0.0000, 0.0000, 0.0000, 0.0000
0, 2.8050, 547, -0.4618, 0.1926, -0.8776, -0.6639, -0.1507, -0.3637, 0.0000, 0.0000, 0.0000, 0.0000, 0.0000, 0.0000, -0.9462, -0.0526, -0.2576, 0.1884, 0.0059, -0.0041, -0.0159, 0.0000, 0.0000, 0.0000, 0.0000
0, 2.8100, 548, -0.4699, 0.2121, -0.8778, -0.1279, -0.6068, -0.4329, 0.0000, 0.0000, 0.0000, 0.0000, 0.0000, 0.0000, -0.9463, -0.0526, -0.2576, 0.1884, -0.0023, 0.0155, -0.0160, 0.0000, 0.0000, 0.0000, 0.0000
0, 2.8150, 549, -0.4697, 0.1966, -0.8700, 0.0704, -0.5977, -0.3691, 0.0000, 0.0000, 0.0000, 0.0000, 0.0000, 0.0000, -0.9463, -0.0526, -0.2576, 0.1883, -0.0021, -0.0000, -0.0082, 0.0000, 0.0000, 0.0000, 0.0000
0, 2.8200, 550, -0.4658, 0.1927, -0.8738, -0.3992, -0.1375, -0.2334, 0.0000, 0.0000, 0.0000, 0.0000, 0.0000, 0.0000, -0.9463, -0.0526, -0.2575, 0.1883, 0.0017, -0.0040, -0.0119, 0.0000, 0.0000, 0.0000, 0.0000
0, 2.8300, 551, -0.4859, 0.1964, -0.8776, -0.4635, -0.2788, -0.3650, 0.0000, 0.0000, 0.0000, 0.0000, 0.0000, 0.0000, -0.9463, -0.0526, -0.2575, 0.1883, -0.0183, -0.0002, -0.0158, 0.0000, 0.0000, 0.0000, 0.0000
0, 2.8350, 552, -0.4735, 0.1969, -0.8546, -0.2060, 0.0683, -0.4457, 0.0000, 0.0000, 0.0000, 0.0000, 0.0000, 0.0000, -0.9463, -0.0527, -0.2576, 0.1883, -0.0059, 0.0003, 0.0072, 0.0000, 0.0000, 0.0000, 0.0000
0, 2.8400, 553, -0.4537, 0.2046, -0.8662, -0.5355, 0.0575, -0.3708, 0.0000, 0.0000, 0.0000, 0.0000, 0.0000, 0.0000, -0.9463, -0.0527, -0.2575, 0.1883, 0.0138, 0.0079, -0.0044, 0.0000, 0.0000, 0.0000, 0.0000
0, 2.8450, 554, -0.4777, 0.1888, -0.8699, -0.4717, 0.2699, -0.1046, 0.0000, 0.0000, 0.0000, 0.0000, 0.0000, 0.0000, -0.9463, -0.0526, -0.2575, 0.1882, -0.0101, -0.0078, -0.0081, 0.0000, 0.0000, 0.0000, 0.0000
0, 2.8500, 555, -0.4737, 0.1927, -0.8699, -0.5342, -0.0830, -0.5718, 0.0000, 0.0000, 0.0000, 0.0000, 0.0000, 0.0000, -0.9463, -0.0526, -0.2576, 0.1882, -0.0061, -0.0037, -0.0081, 0.0000, 0.0000, 0.0000, 0.0000
0, 2.8550, 556, -0.4577, 0.1928, -0.8699, -0.2719, 0.0658, -0.4443, 0.0000, 0.0000, 0.0000, 0.0000, 0.0000, 0.0000, -0.9463, -0.0525, -0.2575, 0.1882, 0.0098, -0.0036, -0.0081, 0.0000, 0.0000, 0.0000, 0.0000
0, 2.8600, 557, -0.4696, 0.2008, -0.8585, -0.7933, -0.3639, -0.5605, 0.0000, 0.0000, 0.0000, 0.0000, 0.0000, 0.0000, -0.9463, -0.0525, -0.2574, 0.1882, -0.0021, 0.0044, 0.0035, 0.0000, 0.0000, 0.0000, 0.0000
0, 2.8650, 558, -0.4696, 0.2007, -0.8623, 0.3261, -0.0390, -0.1142, 0.0000, 0.0000, 0.0000, 0.0000, 0.0000, 0.0000, -0.9463, -0.0526, -0.2574, 0.1882, -0.0022, 0.0043, -0.0004, 0.0000, 0.0000, 0.0000, 0.0000
0, 2.8700, 559, -0.4700, 0.1963, -0.8892, 0.0475, 0.6897, -0.3961, 0.0000, 0.0000, 0.0000, 0.0000, 0.0000, 0.0000, -0.9464, -0.0526, -0.2573, 0.1882, -0.0027, -0.0002, -0.0272, 0.0000, 0.0000, 0.0000, 0.0000
0, 2.8750, 560, -0.4776, 0.1929, -0.8584, -0.2822, 0.7516, -0.1187, 0.0000, 0.0000, 0.0000, 0.0000, 0.0000, 0.0000, -0.9464, -0.0526, -0.2573, 0.1882, -0.0103, -0.0035, 0.0036, 0.0000, 0.0000, 0.0000, 0.0000
0, 2.8800, 561, -0.4620, 0.1963, -0.8892, -0.4015, -0.0747, -0.4387, 0.0000, 0.0000, 0.0000, 0.0000, 0.0000, 0.0000, -0.9464, -0.0526, -0.2573, 0.1882, 0.0052, -0.0000, -0.0271, 0.0000, 0.0000, 0.0000, 0.0000
0, 2.8850, 562, -0.4697, 0.1966, -0.8700, -0.0641, -0.2473, 0.3062, 0.0000, 0.0000, 0.0000, 0.0000, 0.0000, 0.0000, -0.9464, -0.0526, -0.2573, 0.1882, -0.0026, 0.0003, -0.0079, 0.0000, 0.0000, 0.0000, 0.0000
0, 2.8900, 563, -0.4738, 0.2123, -0.8663, -0.5919, -0.1201, 0.7903, 0.0000, 0.0000, 0.0000, 0.0000, 0.0000, 0.0000, -0.9464, -0.0526, -0.2572, 0.1882, -0.0067, 0.0161, -0.0041, 0.0000, 0.0000, 0.0000, 0.0000
0, 2.8950, 564, -0.4816, 0.1850, -0.8621, 0.0596, 0.1592, 0.0910, 0.0000, 0.0000, 0.0000, 0.0000, 0.0000, 0.0000, -0.9464, -0.0522, -0.2573, 0.1882, -0.0142, -0.0108, -0.0000, 0.0000, 0.0000, 0.0000, 0.0000
0, 2.9000, 565, -0.4779, 0.1964, -0.8776, -0.3425, 0.1889, -0.8535, 0.0000, 0.0000, 0.0000, 0.0000, 0.0000, 0.0000, -0.9464, -0.0524, -0.2573, 0.1881, -0.0106, 0.0004, -0.0156, 0.0000, 0.0000, 0.0000, 0.0000
0, 2.9050, 566, -0.4657, 0.1928, -0.8661, -0.5337, -0.1540, -0.7063, 0.0000, 0.0000, 0.0000, 0.0000, 0.0000, 0.0000, -0.9464, -0.0524, -0.2573, 0.1881, 0.0016, -0.0032, -0.0040, 0.0000, 0.0000, 0.0000, 0.0000
0, 2.9100, 567, -0.4819, 0.1924, -0.8853, 0.3371, -0.5745, 0.1691, 0.0000, 0.0000, 0.0000, 0.0000, 0.0000, 0.0000, -0.9464, -0.0524, -0.2573, 0.1881, -0.0146, -0.0036, -0.0232, 0.0000, 0.0000, 0.0000, 0.0000
0, 2.9150, 568, -0.4617, 0.1928, -0.8661, -0.1432, 0.2757, -0.3834, 0.0000, 0.0000, 0.0000, 0.0000, 0.0000, 0.0000, -0.9464, -0.0524, -0.2573, 0.1881, 0.0056, -0.0032, -0.0040, 0.0000, 0.0000, 0.0000, 0.0000
0, 2.9200, 569, -0.4817, 0.1966, -0.8700, -0.3323, -0.0573, 0.1716, 0.0000, 0.0000, 0.0000, 0.0000, 0.0000, 0.0000, -0.9464, -0.0523, -0.2574, 0.1881, -0.0142, 0.0007, -0.0080, 0.0000, 0.0000, 0.0000, 0.0000
0, 2.9250, 570, -0.4697, 0.1927, -0.8699, 0.3213, 0.2320, -0.1199, 0.0000, 0.0000, 0.0000, 0.0000, 0.0000, 0.0000, -0.9464, -0.0523, -0.2574, 0.1881, -0.0022, -0.0031, -0.0079, 0.0000, 0.0000, 0.0000, 0.0000
0, 2.9300, 571, -0.4736, 0.1811, -0.8621, -0.1400, 0.0708, -0.4471, 0.0000, 0.0000, 0.0000, 0.0000, 0.0000, 0.0000, -0.9464, -0.0522, -0.2574, 0.1881, -0.0059, -0.0145, -0.0001, 0.0000, 0.0000, 0.0000, 0.0000
