SensorId, TimeStamp (s), FrameNumber, AccX (g), AccY (g), AccZ (g), GyroX (deg/s), GyroY (deg/s), GyroZ (deg/s), MagX (uT), MagY (uT), MagZ (uT), EulerX (deg), EulerY (deg), EulerZ (deg), QuatW, QuatX, QuatY, QuatZ, LinAccX (g), LinAccY (g), LinAccZ (g), Pressure (kPa), Altitude (m), Temperature (degC), HeaveMotion (m)
0, 0.0000, 0, -0.4974, 0.1812, -0.8544, 0.3100, -0.0510, 0.2944, 0.0000, 0.0000, 0.0000, 0.0000, 0.0000, 0.0000, 1.0000, -0.0008, 0.0007, -0.0001, 0.0000, 0.0000, 0.0000, 0.0000, 0.0000, 0.0000, 0.0000
0, 0.0025, 1, -0.4893, 0.1696, -0.8466, 0.3784, -0.3311, -0.1770, 0.0000, 0.0000, 0.0000, 0.0000, 0.0000, 0.0000, 1.0000, -0.0008, 0.0008, -0.0001, 0.0000, 0.0000, 0.0000, 0.0000, 0.0000, 0.0000, 0.0000
0, 0.0050, 2, -0.4896, 0.1850, -0.8621, 0.3752, -0.1989, -0.3158, 0.0000, 0.0000, 0.0000, 0.0000, 0.0000, 0.0000, 1.0000, -0.0007, 0.0007, -0.0000, 0.0000, 0.0000, 0.0000, 0.0000, 0.0000, 0.0000, 0.0000
0, 0.0100, 3, -0.4735, 0.1773, -0.8582, 0.3113, -0.3386, -0.3795, 0.0000, 0.0000, 0.0000, 0.0000, 0.0000, 0.0000, 1.0000, -0.0008, 0.0008, -0.0001, 0.0000, 0.0000, 0.0000, 0.0000, 0.0000, 0.0000, 0.0000
0, 0.0125, 4, -0.4816, 0.1811, -0.8621, 0.1847, -0.5385, -0.0326, 0.0000, 0.0000, 0.0000, 0.0000, 0.0000, 0.0000, 1.0000, -0.0007, 0.0007, -0.0000, 0.0000, 0.0000, 0.0000, 0.0000, 0.0000, 0.0000, 0.0000
0, 0.0150, 5, -0.4977, 0.1651, -0.8773, -0.2767, -0.6270, -0.1574, 0.0000, 0.0000, 0.0000, 0.0000, 0.0000, 0.0000, 1.0000, -0.0007, 0.0007, -0.0000, 0.0000, 0.0000, 0.0000, 0.0000, 0.0000, 0.0000, 0.0000
0, 0.0175, 6, -0.4935, 0.1732, -0.8620, -0.7490, -0.0330, -0.0925, 0.0000, 0.0000, 0.0000, 0.0000, 0.0000, 0.0000, 1.0000, -0.0007, 0.0007, -0.0000, 0.0000, 0.0000, 0.0000, 0.0000, 0.0000, 0.0000, 0.0000
0, 0.0200, 7, -0.4934, 0.1773, -0.8544, -0.7532, 0.0943, -0.4351, 0.0000, 0.0000, 0.0000, 0.0000, 0.0000, 0.0000, 1.0000, -0.0007, 0.0007, 0.0000, 0.0000, 0.0000, 0.0000, 0.0000, 0.0000, 0.0000, 0.0000
0, 0.0225, 8, -0.5016, 0.1691, -0.8697, -0.4988, 0.5735, -0.6546, 0.0000, 0.0000, 0.0000, 0.0000, 0.0000, 0.0000, 1.0000, -0.0007, 0.0007, 0.0000, 0.0000, 0.0000, 0.0000, 0.0000, 0.0000, 0.0000, 0.0000
0, 0.0250, 9, -0.4977, 0.1770, -0.8697, 0.3085, -0.2047, -0.4503, 0.0000, 0.0000, 0.0000, 0.0000, 0.0000, 0.0000, 1.0000, -0.0007, 0.0007, 0.0000, 0.0000, 0.0000, 0.0000, 0.0000, 0.0000, 0.0000, 0.0000
0, 0.0275, 10, -0.4895, 0.1614, -0.8657, -0.0822, -0.2692, 0.3071, 0.0000, 0.0000, 0.0000, 0.0000, 0.0000, 0.0000, 1.0000, -0.0007, 0.0006, -0.0000, 0.0000, 0.0000, 0.0000, 0.0000, 0.0000, 0.0000, 0.0000
0, 0.0300, 11, -0.4936, 0.1691, -0.8697, 0.4351, -0.0047, -0.7972, 0.0000, 0.0000, 0.0000, 0.0000, 0.0000, 0.0000, 1.0000, -0.0008, 0.0006, 0.0000, 0.0000, 0.0000, 0.0000, 0.0000, 0.0000, 0.0000, 0.0000
0, 0.0325, 12, -0.4975, 0.1851, -0.8545, 0.3759, -0.1956, -0.1798, 0.0000, 0.0000, 0.0000, 0.0000, 0.0000, 0.0000, 1.0000, -0.0007, 0.0007, 0.0000, 0.0000, 0.0000, 0.0000, 0.0000, 0.0000, 0.0000, 0.0000
0, 0.0350, 13, -0.5014, 0.1851, -0.8506, -0.0141, -0.4766, 0.0381, 0.0000, 0.0000, 0.0000, 0.0000, 0.0000, 0.0000, 1.0000, -0.0006, 0.0007, 0.0001, 0.0000, 0.0000, 0.0000, 0.0000, 0.0000, 0.0000, 0.0000
0, 0.0375, 14, -0.4772, 0.1736, -0.8428, 0.1759, -0.2130, -0.5834, 0.0000, 0.0000, 0.0000, 0.0000, 0.0000, 0.0000, 1.0000, -0.0006, 0.0007, 0.0001, 0.0000, 0.0000, 0.0000, 0.0000, 0.0000, 0.0000, 0.0000
0, 0.0400, 15, -0.4853, 0.1657, -0.8466, 0.5127, -0.4616, -0.1769, 0.0000, 0.0000, 0.0000, 0.0000, 0.0000, 0.0000, 1.0000, -0.0006, 0.0007, 0.0001, 0.0000, 0.0000, 0.0000, 0.0000, 0.0000, 0.0000, 0.0000
0, 0.0425, 16, -0.4974, 0.1812, -0.8544, 0.1863, -0.6046, 0.0368, 0.0000, 0.0000, 0.0000, 0.0000, 0.0000, 0.0000, 1.0000, -0.0005, 0.0008, 0.0001, 0.0000, 0.0000, 0.0000, 0.0000, 0.0000, 0.0000, 0.0000
0, 0.0450, 17, -0.4895, 0.1653, -0.8658, -0.0175, -0.3460, -0.1686, 0.0000, 0.0000, 0.0000, 0.0000, 0.0000, 0.0000, 1.0000, -0.0006, 0.0007, 0.0001, 0.0000, 0.0000, 0.0000, 0.0000, 0.0000, 0.0000, 0.0000
0, 0.0475, 18, -0.4935, 0.1732, -0.8620, -0.0849, -0.2081, 0.0338, 0.0000, 0.0000, 0.0000, 0.0000, 0.0000, 0.0000, 1.0000, -0.0006, 0.0007, 0.0001, 0.0000, 0.0000, 0.0000, 0.0000, 0.0000, 0.0000, 0.0000
0, 0.0500, 19, -0.5056, 0.1730, -0.8697, -0.0781, -0.5435, 0.1768, 0.0000, 0.0000, 0.0000, 0.0000, 0.0000, 0.0000, 1.0000, -0.0006, 0.0007, 0.0001, 0.0000, 0.0000, 0.0000, 0.0000, 0.0000, 0.0000, 0.0000
0, 0.0525, 20, -0.5056, 0.1652, -0.8696, 0.0572, -0.5964, 0.5833, 0.0000, 0.0000, 0.0000, 0.0000, 0.0000, 0.0000, 1.0000, -0.0006, 0.0008, 0.0001, 0.0000, 0.0000, 0.0000, 0.0000, 0.0000, 0.0000, 0.0000
0, 0.0625, 21, -0.4975, 0.1772, -0.8582, -0.1489, -0.2750, 0.1725, 0.0000, 0.0000, 0.0000, 0.0000, 0.0000, 0.0000, 1.0000, -0.0007, 0.0008, 0.0000, 0.0000, 0.0000, 0.0000, 0.0000, 0.0000, 0.0000, 0.0000
0, 0.0650, 22, -0.4975, 0.1733, -0.8582, -0.4101, -0.4188, 0.2489, 0.0000, 0.0000, 0.0000, 0.0000, 0.0000, 0.0000, 1.0000, -0.0006, 0.0009, 0.0000, 0.0000, 0.0000, 0.0000, 0.0000, 0.0000, 0.0000, 0.0000
0, 0.0750, 23, -0.4813, 0.1696, -0.8505, -0.4747, -0.5618, 0.0493, 0.0000, 0.0000, 0.0000, 0.0000, 0.0000, 0.0000, 1.0000, -0.0006, 0.0009, 0.0000, 0.0000, 0.0000, 0.0000, 0.0000, 0.0000, 0.0000, 0.0000
0, 0.0775, 24, -0.5055, 0.1653, -0.8619, -0.3480, -0.4345, -0.5001, 0.0000, 0.0000, 0.0000, 0.0000, 0.0000, 0.0000, 1.0000, -0.0006, 0.0010, 0.0001, 0.0000, 0.0000, 0.0000, 0.0000, 0.0000, 0.0000, 0.0000
0, 0.0800, 25, -0.5096, 0.1888, -0.8622, -0.0280, 0.0456, -0.7888, 0.0000, 0.0000, 0.0000, 0.0000, 0.0000, 0.0000, 1.0000, -0.0005, 0.0010, 0.0001, 0.0000, 0.0000, 0.0000, 0.0000, 0.0000, 0.0000, 0.0000
0, 0.0825, 26, -0.5014, 0.1654, -0.8581, 0.1819, -0.5518, -0.5763, 0.0000, 0.0000, 0.0000, 0.0000, 0.0000, 0.0000, 1.0000, -0.0006, 0.0010, 0.0001, 0.0000, 0.0000, 0.0000, 0.0000, 0.0000, 0.0000, 0.0000
0, 0.0850, 27, -0.4975, 0.1694, -0.8581, 0.4527, -0.5831, 0.5069, 0.0000, 0.0000, 0.0000, 0.0000, 0.0000, 0.0000, 1.0000, -0.0006, 0.0011, 0.0001, 0.0000, 0.0000, 0.0000, 0.0000, 0.0000, 0.0000, 0.0000
0, 0.0875, 28, -0.4937, 0.1651, -0.8773, 0.2455, -0.2667, -0.1077, 0.0000, 0.0000, 0.0000, 0.0000, 0.0000, 0.0000, 1.0000, -0.0006, 0.0010, 0.0001, 0.0000, 0.0000, 0.0000, 0.0000, 0.0000, 0.0000, 0.0000
0, 0.0950, 29, -0.4937, 0.1572, -0.8772, 0.7726, -0.1774, -0.0523, 0.0000, 0.0000, 0.0000, 0.0000, 0.0000, 0.0000, 1.0000, -0.0007, 0.0009, 0.0000, 0.0000, 0.0000, 0.0000, 0.0000, 0.0000, 0.0000, 0.0000
0, 0.0975, 30, -0.4895, 0.1654, -0.8619, 0.5117, -0.3195, 0.0921, 0.0000, 0.0000, 0.0000, 0.0000, 0.0000, 0.0000, 1.0000, -0.0008, 0.0009, -0.0000, 0.0000, 0.0000, 0.0000, 0.0000, 0.0000, 0.0000, 0.0000
0, 0.1000, 31, -0.4933, 0.1656, -0.8504, -0.0252, 0.2786, 0.4302, 0.0000, 0.0000, 0.0000, 0.0000, 0.0000, 0.0000, 1.0000, -0.0008, 0.0009, -0.0000, 0.0000, 0.0000, 0.0000, 0.0000, 0.0000, 0.0000, 0.0000
0, 0.1050, 32, -0.4934, 0.1655, -0.8543, 0.4382, 0.0829, 0.0170, 0.0000, 0.0000, 0.0000, 0.0000, 0.0000, 0.0000, 1.0000, -0.0008, 0.0009, -0.0001, 0.0000, 0.0000, 0.0000, 0.0000, 0.0000, 0.0000, 0.0000
0, 0.1075, 33, -0.4973, 0.1774, -0.8467, 0.8278, 0.3622, -0.2689, 0.0000, 0.0000, 0.0000, 0.0000, 0.0000, 0.0000, 1.0000, -0.0008, 0.0009, -0.0001, 0.0000, 0.0000, 0.0000, 0.0000, 0.0000, 0.0000, 0.0000
0, 0.1100, 34, -0.4935, 0.1772, -0.8582, 0.3801, -0.3228, 0.1628, 0.0000, 0.0000, 0.0000, 0.0000, 0.0000, 0.0000, 1.0000, -0.0008, 0.0009, -0.0000, 0.0000, 0.0000, 0.0000, 0.0000, 0.0000, 0.0000, 0.0000
0, 0.1125, 35, -0.4935, 0.1732, -0.8620, -0.7439, -0.4494, -0.4917, 0.0000, 0.0000, 0.0000, 0.0000, 0.0000, 0.0000, 1.0000, -0.0008, 0.0009, -0.0000, 0.0000, 0.0000, 0.0000, 0.0000, 0.0000, 0.0000, 0.0000
0, 0.1150, 36, -0.4895, 0.1733, -0.8582, 0.1708, 0.2035, -0.1842, 0.0000, 0.0000, 0.0000, 0.0000, 0.0000, 0.0000, 1.0000, -0.0008, 0.0009, -0.0000, 0.0000, 0.0000, 0.0000, 0.0000, 0.0000, 0.0000, 0.0000
0, 0.1200, 37, -0.5015, 0.1614, -0.8619, 0.3090, -0.0560, 0.0906, 0.0000, 0.0000, 0.0000, 0.0000, 0.0000, 0.0000, 1.0000, -0.0009, 0.0009, -0.0001, 0.0000, 0.0000, 0.0000, 0.0000, 0.0000, 0.0000, 0.0000
0, 0.1225, 38, -0.4975, 0.1614, -0.8619, -0.2180, 0.0018, 0.5081, 0.0000, 0.0000, 0.0000, 0.0000, 0.0000, 0.0000, 1.0000, -0.0010, 0.0009, -0.0001, 0.0000, 0.0000, 0.0000, 0.0000, 0.0000, 0.0000, 0.0000
0, 0.1275, 39, -0.4812, 0.1736, -0.8428, 0.7745, -0.0947, 0.5580, 0.0000, 0.0000, 0.0000, 0.0000, 0.0000, 0.0000, 1.0000, -0.0009, 0.0010, -0.0001, 0.0000, 0.0000, 0.0000, 0.0000, 0.0000, 0.0000, 0.0000
0, 0.1300, 40, -0.5055, 0.1692, -0.8620, 0.5791, -0.3104, 0.3625, 0.0000, 0.0000, 0.0000, 0.0000, 0.0000, 0.0000, 1.0000, -0.0009, 0.0010, -0.0001, 0.0000, 0.0000, 0.0000, 0.0000, 0.0000, 0.0000, 0.0000
0, 0.1325, 41, -0.5054, 0.1733, -0.8543, 0.1734, 0.1423, 0.0891, 0.0000, 0.0000, 0.0000, 0.0000, 0.0000, 0.0000, 1.0000, -0.0009, 0.0011, -0.0002, 0.0000, 0.0000, 0.0000, 0.0000, 0.0000, 0.0000, 0.0000
0, 0.1350, 42, -0.5052, 0.1618, -0.8427, -0.2137, -0.3452, 0.1753, 0.0000, 0.0000, 0.0000, 0.0000, 0.0000, 0.0000, 1.0000, -0.0009, 0.0012, -0.0002, 0.0000, 0.0000, 0.0000, 0.0000, 0.0000, 0.0000, 0.0000
0, 0.1400, 43, -0.5015, 0.1693, -0.8620, -0.2194, -0.0048, 0.2362, 0.0000, 0.0000, 0.0000, 0.0000, 0.0000, 0.0000, 1.0000, -0.0008, 0.0013, -0.0002, 0.0000, 0.0000, 0.0000, 0.0000, 0.0000, 0.0000, 0.0000
0, 0.1425, 44, -0.4854, 0.1577, -0.8580, -0.0252, 0.2786, 0.4302, 0.0000, 0.0000, 0.0000, 0.0000, 0.0000, 0.0000, 1.0000, -0.0009, 0.0012, -0.0002, 0.0000, 0.0000, 0.0000, 0.0000, 0.0000, 0.0000, 0.0000
0, 0.1500, 45, -0.4933, 0.1735, -0.8467, 0.7652, 0.3019, 0.1417, 0.0000, 0.0000, 0.0000, 0.0000, 0.0000, 0.0000, 1.0000, -0.0009, 0.0012, -0.0002, 0.0000, 0.0000, 0.0000, 0.0000, 0.0000, 0.0000, 0.0000
0, 0.1525, 46, -0.4976, 0.1730, -0.8697, 0.0501, -0.2626, 0.3722, 0.0000, 0.0000, 0.0000, 0.0000, 0.0000, 0.0000, 1.0000, -0.0009, 0.0012, -0.0002, 0.0000, 0.0000, 0.0000, 0.0000, 0.0000, 0.0000, 0.0000
0, 0.1575, 47, -0.4814, 0.1773, -0.8544, -0.2093, -0.3981, 0.7884, 0.0000, 0.0000, 0.0000, 0.0000, 0.0000, 0.0000, 1.0000, -0.0008, 0.0012, -0.0002, 0.0000, 0.0000, 0.0000, 0.0000, 0.0000, 0.0000, 0.0000
0, 0.1600, 48, -0.4896, 0.1810, -0.8659, 0.1725, 0.0646, -0.3173, 0.0000, 0.0000, 0.0000, 0.0000, 0.0000, 0.0000, 1.0000, -0.0008, 0.0012, -0.0002, 0.0000, 0.0000, 0.0000, 0.0000, 0.0000, 0.0000, 0.0000
0, 0.1625, 49, -0.4936, 0.1692, -0.8658, -0.0102, -0.6055, 0.3128, 0.0000, 0.0000, 0.0000, 0.0000, 0.0000, 0.0000, 1.0000, -0.0008, 0.0012, -0.0002, 0.0000, 0.0000, 0.0000, 0.0000, 0.0000, 0.0000, 0.0000
0, 0.1650, 50, -0.4896, 0.1731, -0.8697, -0.4744, -0.5601, 0.1172, 0.0000, 0.0000, 0.0000, 0.0000, 0.0000, 0.0000, 1.0000, -0.0008, 0.0011, -0.0002, 0.0000, 0.0000, 0.0000, 0.0000, 0.0000, 0.0000, 0.0000
0, 0.1675, 51, -0.4895, 0.1851, -0.8545, -0.0129, -0.5443, 0.0395, 0.0000, 0.0000, 0.0000, 0.0000, 0.0000, 0.0000, 1.0000, -0.0007, 0.0011, -0.0001, 0.0000, 0.0000, 0.0000, 0.0000, 0.0000, 0.0000, 0.0000
0, 0.1700, 52, -0.5058, 0.1885, -0.8776, -0.0823, -0.4163, -0.1658, 0.0000, 0.0000, 0.0000, 0.0000, 0.0000, 0.0000, 1.0000, -0.0006, 0.0011, -0.0001, 0.0000, 0.0000, 0.0000, 0.0000, 0.0000, 0.0000, 0.0000
0, 0.1725, 53, -0.4974, 0.1773, -0.8544, -0.4081, -0.5560, 0.1838, 0.0000, 0.0000, 0.0000, 0.0000, 0.0000, 0.0000, 1.0000, -0.0006, 0.0011, -0.0001, 0.0000, 0.0000, 0.0000, 0.0000, 0.0000, 0.0000, 0.0000
0, 0.1750, 54, -0.5015, 0.1850, -0.8583, -0.6716, -0.7841, -0.4180, 0.0000, 0.0000, 0.0000, 0.0000, 0.0000, 0.0000, 1.0000, -0.0005, 0.0012, -0.0001, 0.0000, 0.0000, 0.0000, 0.0000, 0.0000, 0.0000, 0.0000
0, 0.1775, 55, -0.4976, 0.1731, -0.8659, -0.5601, 0.3727, -0.4450, 0.0000, 0.0000, 0.0000, 0.0000, 0.0000, 0.0000, 1.0000, -0.0005, 0.0012, -0.0001, 0.0000, 0.0000, 0.0000, 0.0000, 0.0000, 0.0000, 0.0000
0, 0.1800, 56, -0.4856, 0.1811, -0.8621, -0.5508, -0.1709, -0.5016, 0.0000, 0.0000, 0.0000, 0.0000, 0.0000, 0.0000, 1.0000, -0.0005, 0.0011, -0.0001, 0.0000, 0.0000, 0.0000, 0.0000, 0.0000, 0.0000, 0.0000
0, 0.1825, 57, -0.4856, 0.1811, -0.8621, 0.2432, -0.3510, -0.7859, 0.0000, 0.0000, 0.0000, 0.0000, 0.0000, 0.0000, 1.0000, -0.0005, 0.0011, -0.0000, 0.0000, 0.0000, 0.0000, 0.0000, 0.0000, 0.0000, 0.0000
0, 0.1875, 58, -0.4854, 0.1695, -0.8543, 0.3147, -0.2493, 0.5026, 0.0000, 0.0000, 0.0000, 0.0000, 0.0000, 0.0000, 1.0000, -0.0005, 0.0010, -0.0001, 0.0000, 0.0000, 0.0000, 0.0000, 0.0000, 0.0000, 0.0000
0, 0.1900, 59, -0.5012, 0.1736, -0.8428, 0.1028, 0.4852, 0.3552, 0.0000, 0.0000, 0.0000, 0.0000, 0.0000, 0.0000, 1.0000, -0.0005, 0.0011, -0.0001, 0.0000, 0.0000, 0.0000, 0.0000, 0.0000, 0.0000, 0.0000
0, 0.1925, 60, -0.5015, 0.1653, -0.8619, 0.0413, 0.2101, 0.2943, 0.0000, 0.0000, 0.0000, 0.0000, 0.0000, 0.0000, 1.0000, -0.0006, 0.0011, -0.0001, 0.0000, 0.0000, 0.0000, 0.0000, 0.0000, 0.0000, 0.0000
0, 0.1950, 61, -0.5015, 0.1653, -0.8619, 0.4351, 0.2151, -0.1218, 0.0000, 0.0000, 0.0000, 0.0000, 0.0000, 0.0000, 1.0000, -0.0006, 0.0011, -0.0001, 0.0000, 0.0000, 0.0000, 0.0000, 0.0000, 0.0000, 0.0000
0, 0.1975, 62, -0.5056, 0.1731, -0.8659, 0.2358, 0.3481, 0.0834, 0.0000, 0.0000, 0.0000, 0.0000, 0.0000, 0.0000, 1.0000, -0.0006, 0.0011, -0.0001, 0.0000, 0.0000, 0.0000, 0.0000, 0.0000, 0.0000, 0.0000
0, 0.2000, 63, -0.4936, 0.1770, -0.8659, 0.1662, 0.5489, 0.0805, 0.0000, 0.0000, 0.0000, 0.0000, 0.0000, 0.0000, 1.0000, -0.0006, 0.0011, -0.0001, 0.0000, 0.0000, 0.0000, 0.0000, 0.0000, 0.0000, 0.0000
0, 0.2025, 64, -0.5056, 0.1730, -0.8697, 0.1120, -0.2056, -0.1743, 0.0000, 0.0000, 0.0000, 0.0000, 0.0000, 0.0000, 1.0000, -0.0006, 0.0011, -0.0001, 0.0000, 0.0000, 0.0000, 0.0000, 0.0000, 0.0000, 0.0000
0, 0.2050, 65, -0.5135, 0.1731, -0.8620, -0.0220, -0.0734, -0.1064, 0.0000, 0.0000, 0.0000, 0.0000, 0.0000, 0.0000, 1.0000, -0.0006, 0.0013, -0.0001, 0.0000, 0.0000, 0.0000, 0.0000, 0.0000, 0.0000, 0.0000
0, 0.2075, 66, -0.4893, 0.1774, -0.8467, 0.0992, 0.3216, -0.7973, 0.0000, 0.0000, 0.0000, 0.0000, 0.0000, 0.0000, 1.0000, -0.0006, 0.0013, -0.0001, 0.0000, 0.0000, 0.0000, 0.0000, 0.0000, 0.0000, 0.0000
0, 0.2100, 67, -0.4933, 0.1656, -0.8504, -0.2244, 0.1918, -0.0399, 0.0000, 0.0000, 0.0000, 0.0000, 0.0000, 0.0000, 1.0000, -0.0006, 0.0013, -0.0001, 0.0000, 0.0000, 0.0000, 0.0000, 0.0000, 0.0000, 0.0000
0, 0.2125, 68, -0.4935, 0.1693, -0.8620, -0.0807, -0.3353, 0.3765, 0.0000, 0.0000, 0.0000, 0.0000, 0.0000, 0.0000, 1.0000, -0.0006, 0.0013, -0.0001, 0.0000, 0.0000, 0.0000, 0.0000, 0.0000, 0.0000, 0.0000
0, 0.2200, 69, -0.5014, 0.1616, -0.8542, 0.5100, 0.0391, 0.9005, 0.0000, 0.0000, 0.0000, 0.0000, 0.0000, 0.0000, 1.0000, -0.0008, 0.0012, -0.0001, 0.0000, 0.0000, 0.0000, 0.0000, 0.0000, 0.0000, 0.0000
0, 0.2225, 70, -0.4976, 0.1730, -0.8697, 0.8467, -0.5037, 0.3612, 0.0000, 0.0000, 0.0000, 0.0000, 0.0000, 0.0000, 1.0000, -0.0008, 0.0012, -0.0001, 0.0000, 0.0000, 0.0000, 0.0000, 0.0000, 0.0000, 0.0000
0, 0.2250, 71, -0.5013, 0.1617, -0.8504, 0.5788, -0.3121, 0.2946, 0.0000, 0.0000, 0.0000, 0.0000, 0.0000, 0.0000, 1.0000, -0.0008, 0.0013, -0.0002, 0.0000, 0.0000, 0.0000, 0.0000, 0.0000, 0.0000, 0.0000
0, 0.2275, 72, -0.4976, 0.1692, -0.8658, -0.2139, -0.2725, 0.3778, 0.0000, 0.0000, 0.0000, 0.0000, 0.0000, 0.0000, 1.0000, -0.0008, 0.0013, -0.0002, 0.0000, 0.0000, 0.0000, 0.0000, 0.0000, 0.0000, 0.0000
0, 0.2300, 73, -0.4934, 0.1576, -0.8580, -0.1485, -0.4931, -0.4349, 0.0000, 0.0000, 0.0000, 0.0000, 0.0000, 0.0000, 1.0000, -0.0009, 0.0013, -0.0002, 0.0000, 0.0000, 0.0000, 0.0000, 0.0000, 0.0000, 0.0000
0, 0.2350, 74, -0.5055, 0.1732, -0.8620, -0.6840, -0.1082, -0.5002, 0.0000, 0.0000, 0.0000, 0.0000, 0.0000, 0.0000, 1.0000, -0.0009, 0.0014, -0.0002, 0.0000, 0.0000, 0.0000, 0.0000, 0.0000, 0.0000, 0.0000
0, 0.2375, 75, -0.5055, 0.1693, -0.8581, 0.1815, -0.3336, 0.0311, 0.0000, 0.0000, 0.0000, 0.0000, 0.0000, 0.0000, 1.0000, -0.0009, 0.0014, -0.0002, 0.0000, 0.0000, 0.0000, 0.0000, 0.0000, 0.0000, 0.0000
0, 0.2400, 76, -0.4893, 0.1578, -0.8503, -0.6792, -0.1594, 0.1808, 0.0000, 0.0000, 0.0000, 0.0000, 0.0000, 0.0000, 1.0000, -0.0009, 0.0014, -0.0002, 0.0000, 0.0000, 0.0000, 0.0000, 0.0000, 0.0000, 0.0000
0, 0.2425, 77, -0.4894, 0.1655, -0.8543, -0.3520, -0.2329, -0.5723, 0.0000, 0.0000, 0.0000, 0.0000, 0.0000, 0.0000, 1.0000, -0.0009, 0.0014, -0.0002, 0.0000, 0.0000, 0.0000, 0.0000, 0.0000, 0.0000, 0.0000
0, 0.2450, 78, -0.4935, 0.1654, -0.8619, -0.5491, -0.3098, -0.6347, 0.0000, 0.0000, 0.0000, 0.0000, 0.0000, 0.0000, 1.0000, -0.0010, 0.0014, -0.0002, 0.0000, 0.0000, 0.0000, 0.0000, 0.0000, 0.0000, 0.0000
0, 0.2475, 79, -0.4855, 0.1694, -0.8581, 0.2336, 0.3382, -0.3244, 0.0000, 0.0000, 0.0000, 0.0000, 0.0000, 0.0000, 1.0000, -0.0010, 0.0014, -0.0001, 0.0000, 0.0000, 0.0000, 0.0000, 0.0000, 0.0000, 0.0000
0, 0.2525, 80, -0.4975, 0.1653, -0.8658, -0.3582, 0.3984, 0.2984, 0.0000, 0.0000, 0.0000, 0.0000, 0.0000, 0.0000, 1.0000, -0.0010, 0.0014, -0.0002, 0.0000, 0.0000, 0.0000, 0.0000, 0.0000, 0.0000, 0.0000
0, 0.2550, 81, -0.5015, 0.1653, -0.8658, -0.0905, 0.1324, 0.0946, 0.0000, 0.0000, 0.0000, 0.0000, 0.0000, 0.0000, 1.0000, -0.0011, 0.0014, -0.0002, 0.0000, 0.0000, 0.0000, 0.0000, 0.0000, 0.0000, 0.0000
0, 0.2575, 82, -0.4894, 0.1734, -0.8543, -0.6735, -0.4998, 0.1200, 0.0000, 0.0000, 0.0000, 0.0000, 0.0000, 0.0000, 1.0000, -0.0010, 0.0014, -0.0002, 0.0000, 0.0000, 0.0000, 0.0000, 0.0000, 0.0000, 0.0000
0, 0.2625, 83, -0.4975, 0.1614, -0.8657, 0.3147, -0.2493, 0.5026, 0.0000, 0.0000, 0.0000, 0.0000, 0.0000, 0.0000, 1.0000, -0.0010, 0.0014, -0.0001, 0.0000, 0.0000, 0.0000, 0.0000, 0.0000, 0.0000, 0.0000
0, 0.2650, 84, -0.5016, 0.1770, -0.8659, -0.0177, -0.2733, 0.0338, 0.0000, 0.0000, 0.0000, 0.0000, 0.0000, 0.0000, 1.0000, -0.0010, 0.0014, -0.0001, 0.0000, 0.0000, 0.0000, 0.0000, 0.0000, 0.0000, 0.0000
0, 0.2675, 85, -0.4815, 0.1890, -0.8583, -0.0280, 0.2654, -0.1135, 0.0000, 0.0000, 0.0000, 0.0000, 0.0000, 0.0000, 1.0000, -0.0008, 0.0012, -0.0001, 0.0000, 0.0000, 0.0000, 0.0000, 0.0000, 0.0000, 0.0000
0, 0.2700, 86, -0.4815, 0.1733, -0.8582, -0.3487, -0.2907, -0.1631, 0.0000, 0.0000, 0.0000, 0.0000, 0.0000, 0.0000, 1.0000, -0.0008, 0.0012, -0.0001, 0.0000, 0.0000, 0.0000, 0.0000, 0.0000, 0.0000, 0.0000
0, 0.2725, 87, -0.4895, 0.1693, -0.8620, 0.3120, -0.3353, -0.2436, 0.0000, 0.0000, 0.0000, 0.0000, 0.0000, 0.0000, 1.0000, -0.0008, 0.0011, -0.0001, 0.0000, 0.0000, 0.0000, 0.0000, 0.0000, 0.0000, 0.0000
0, 0.2750, 88, -0.4935, 0.1732, -0.8620, 0.0630, -1.0095, 0.3199, 0.0000, 0.0000, 0.0000, 0.0000, 0.0000, 0.0000, 1.0000, -0.0008, 0.0011, -0.0001, 0.0000, 0.0000, 0.0000, 0.0000, 0.0000, 0.0000, 0.0000
0, 0.2775, 89, -0.5016, 0.1809, -0.8659, 0.0565, -0.8195, -0.2280, 0.0000, 0.0000, 0.0000, 0.0000, 0.0000, 0.0000, 1.0000, -0.0008, 0.0012, -0.0001, 0.0000, 0.0000, 0.0000, 0.0000, 0.0000, 0.0000, 0.0000
0, 0.2800, 90, -0.4933, 0.1695, -0.8505, 0.2414, 0.0077, 0.0226, 0.0000, 0.0000, 0.0000, 0.0000, 0.0000, 0.0000, 1.0000, -0.0008, 0.0012, -0.0001, 0.0000, 0.0000, 0.0000, 0.0000, 0.0000, 0.0000, 0.0000
0, 0.2825, 91, -0.4895, 0.1694, -0.8581, -0.0170, -0.2700, 0.1697, 0.0000, 0.0000, 0.0000, 0.0000, 0.0000, 0.0000, 1.0000, -0.0008, 0.0012, -0.0001, 0.0000, 0.0000, 0.0000, 0.0000, 0.0000, 0.0000, 0.0000
0, 0.2850, 92, -0.4974, 0.1694, -0.8543, 0.3788, -0.1824, 0.3639, 0.0000, 0.0000, 0.0000, 0.0000, 0.0000, 0.0000, 1.0000, -0.0008, 0.0012, -0.0001, 0.0000, 0.0000, 0.0000, 0.0000, 0.0000, 0.0000, 0.0000
0, 0.2875, 93, -0.4934, 0.1773, -0.8544, -0.0147, -0.3328, 0.3751, 0.0000, 0.0000, 0.0000, 0.0000, 0.0000, 0.0000, 1.0000, -0.0007, 0.0012, -0.0001, 0.0000, 0.0000, 0.0000, 0.0000, 0.0000, 0.0000, 0.0000
0, 0.2900, 94, -0.4975, 0.1694, -0.8581, 0.2465, -0.4088, -0.3767, 0.0000, 0.0000, 0.0000, 0.0000, 0.0000, 0.0000, 1.0000, -0.0007, 0.0012, -0.0001, 0.0000, 0.0000, 0.0000, 0.0000, 0.0000, 0.0000, 0.0000
0, 0.2925, 95, -0.4855, 0.1694, -0.8581, 0.3796, -0.3989, -0.1756, 0.0000, 0.0000, 0.0000, 0.0000, 0.0000, 0.0000, 1.0000, -0.0008, 0.0012, -0.0001, 0.0000, 0.0000, 0.0000, 0.0000, 0.0000, 0.0000, 0.0000
0, 0.2950, 96, -0.4973, 0.1813, -0.8467, 0.2484, -0.2534, 0.4360, 0.0000, 0.0000, 0.0000, 0.0000, 0.0000, 0.0000, 1.0000, -0.0007, 0.0012, -0.0001, 0.0000, 0.0000, 0.0000, 0.0000, 0.0000, 0.0000, 0.0000
0, 0.2975, 97, -0.4896, 0.1810, -0.8659, 0.5076, -0.1923, -0.2506, 0.0000, 0.0000, 0.0000, 0.0000, 0.0000, 0.0000, 1.0000, -0.0007, 0.0012, -0.0001, 0.0000, 0.0000, 0.0000, 0.0000, 0.0000, 0.0000, 0.0000
0, 0.3025, 98, -0.4934, 0.1655, -0.8581, -0.3445, -0.4180, 0.1796, 0.0000, 0.0000, 0.0000, 0.0000, 0.0000, 0.0000, 1.0000, -0.0007, 0.0011, -0.0001, 0.0000, 0.0000, 0.0000, 0.0000, 0.0000, 0.0000, 0.0000
0, 0.3050, 99, -0.5135, 0.1731, -0.8620, -0.7615, 0.4958, -0.6476, 0.0000, 0.0000, 0.0000, 0.0000, 0.0000, 0.0000, 1.0000, -0.0007, 0.0012, -0.0001, 0.0000, 0.0000, 0.0000, 0.0000, 0.0000, 0.0000, 0.0000
0, 0.3075, 100, -0.4896, 0.1692, -0.8658, -0.5549, 0.1034, -0.3714, 0.0000, 0.0000, 0.0000, 0.0000, 0.0000, 0.0000, 1.0000, -0.0007, 0.0011, -0.0001, 0.0000, 0.0000, 0.0000, 0.0000, 0.0000, 0.0000, 0.0000
0, 0.3100, 101, -0.4938, 0.1728, -0.8812, -0.0280, 0.0456, -0.7888, 0.0000, 0.0000, 0.0000, 0.0000, 0.0000, 0.0000, 1.0000, -0.0007, 0.0011, -0.0000, 0.0000, 0.0000, 0.0000, 0.0000, 0.0000, 0.0000, 0.0000
0, 0.3125, 102, -0.5015, 0.1535, -0.8657, -0.2178, -0.2907, -0.3698, 0.0000, 0.0000, 0.0000, 0.0000, 0.0000, 0.0000, 1.0000, -0.0008, 0.0011, -0.0001, 0.0000, 0.0000, 0.0000, 0.0000, 0.0000, 0.0000, 0.0000
0, 0.3150, 103, -0.4973, 0.1617, -0.8504, -0.3702, 0.8561, -0.3912, 0.0000, 0.0000, 0.0000, 0.0000, 0.0000, 0.0000, 1.0000, -0.0008, 0.0011, -0.0001, 0.0000, 0.0000, 0.0000, 0.0000, 0.0000, 0.0000, 0.0000
0, 0.3175, 104, -0.4975, 0.1733, -0.8582, -0.0278, 0.3398, 0.1569, 0.0000, 0.0000, 0.0000, 0.0000, 0.0000, 0.0000, 1.0000, -0.0008, 0.0011, -0.0001, 0.0000, 0.0000, 0.0000, 0.0000, 0.0000, 0.0000, 0.0000
0, 0.3200, 105, -0.4935, 0.1732, -0.8620, 0.3742, -0.0568, -0.0468, 0.0000, 0.0000, 0.0000, 0.0000, 0.0000, 0.0000, 1.0000, -0.0008, 0.0011, -0.0001, 0.0000, 0.0000, 0.0000, 0.0000, 0.0000, 0.0000, 0.0000
0, 0.3250, 106, -0.5095, 0.1652, -0.8658, 0.1112, -0.1361, -0.1077, 0.0000, 0.0000, 0.0000, 0.0000, 0.0000, 0.0000, 1.0000, -0.0008, 0.0012, -0.0001, 0.0000, 0.0000, 0.0000, 0.0000, 0.0000, 0.0000, 0.0000
0, 0.3275, 107, -0.4973, 0.1774, -0.8467, -0.6168, -0.1734, -0.5002, 0.0000, 0.0000, 0.0000, 0.0000, 0.0000, 0.0000, 1.0000, -0.0008, 0.0012, -0.0001, 0.0000, 0.0000, 0.0000, 0.0000, 0.0000, 0.0000, 0.0000
0, 0.3300, 108, -0.4894, 0.1576, -0.8580, -0.3511, -0.3023, -0.6388, 0.0000, 0.0000, 0.0000, 0.0000, 0.0000, 0.0000, 1.0000, -0.0008, 0.0012, -0.0000, 0.0000, 0.0000, 0.0000, 0.0000, 0.0000, 0.0000, 0.0000
0, 0.3325, 109, -0.5013, 0.1774, -0.8467, -0.2214, -0.0874, -0.3740, 0.0000, 0.0000, 0.0000, 0.0000, 0.0000, 0.0000, 1.0000, -0.0008, 0.0013, -0.0000, 0.0000, 0.0000, 0.0000, 0.0000, 0.0000, 0.0000, 0.0000
0, 0.3350, 110, -0.5055, 0.1732, -0.8582, 0.1892, -0.8112, -0.0949, 0.0000, 0.0000, 0.0000, 0.0000, 0.0000, 0.0000, 1.0000, -0.0008, 0.0014, -0.0000, 0.0000, 0.0000, 0.0000, 0.0000, 0.0000, 0.0000, 0.0000
0, 0.3375, 111, -0.4977, 0.1808, -0.8736, -0.3404, -0.6923, 0.0493, 0.0000, 0.0000, 0.0000, 0.0000, 0.0000, 0.0000, 1.0000, -0.0007, 0.0014, -0.0000, 0.0000, 0.0000, 0.0000, 0.0000, 0.0000, 0.0000, 0.0000
0, 0.3400, 112, -0.4974, 0.1773, -0.8544, 0.0453, -0.2113, -0.3088, 0.0000, 0.0000, 0.0000, 0.0000, 0.0000, 0.0000, 1.0000, -0.0007, 0.0014, -0.0000, 0.0000, 0.0000, 0.0000, 0.0000, 0.0000, 0.0000, 0.0000
0, 0.3425, 113, -0.4973, 0.1695, -0.8505, 0.5039, 0.0110, -0.2549, 0.0000, 0.0000, 0.0000, 0.0000, 0.0000, 0.0000, 1.0000, -0.0007, 0.0014, -0.0000, 0.0000, 0.0000, 0.0000, 0.0000, 0.0000, 0.0000, 0.0000
0, 0.3450, 114, -0.4856, 0.1732, -0.8659, -0.0239, -0.0089, -0.2437, 0.0000, 0.0000, 0.0000, 0.0000, 0.0000, 0.0000, 1.0000, -0.0007, 0.0013, -0.0000, 0.0000, 0.0000, 0.0000, 0.0000, 0.0000, 0.0000, 0.0000
0, 0.3475, 115, -0.4895, 0.1694, -0.8581, -0.4201, 0.1216, 0.1696, 0.0000, 0.0000, 0.0000, 0.0000, 0.0000, 0.0000, 1.0000, -0.0007, 0.0012, -0.0000, 0.0000, 0.0000, 0.0000, 0.0000, 0.0000, 0.0000, 0.0000
0, 0.3500, 116, -0.4894, 0.1655, -0.8581, -0.5452, -0.2916, 0.1129, 0.0000, 0.0000, 0.0000, 0.0000, 0.0000, 0.0000, 1.0000, -0.0007, 0.0012, -0.0000, 0.0000, 0.0000, 0.0000, 0.0000, 0.0000, 0.0000, 0.0000
0, 0.3525, 117, -0.4896, 0.1652, -0.8696, 0.1158, -0.3344, 0.1004, 0.0000, 0.0000, 0.0000, 0.0000, 0.0000, 0.0000, 1.0000, -0.0008, 0.0011, -0.0000, 0.0000, 0.0000, 0.0000, 0.0000, 0.0000, 0.0000, 0.0000
0, 0.3600, 118, -0.4976, 0.1731, -0.8659, 0.4444, -0.1815, 0.2945, 0.0000, 0.0000, 0.0000, 0.0000, 0.0000, 0.0000, 1.0000, -0.0007, 0.0012, -0.0000, 0.0000, 0.0000, 0.0000, 0.0000, 0.0000, 0.0000, 0.0000
0, 0.3625, 119, -0.4977, 0.1770, -0.8697, 0.0477, -0.3469, -0.3060, 0.0000, 0.0000, 0.0000, 0.0000, 0.0000, 0.0000, 1.0000, -0.0006, 0.0012, -0.0000, 0.0000, 0.0000, 0.0000, 0.0000, 0.0000, 0.0000, 0.0000
0, 0.3650, 120, -0.4974, 0.1773, -0.8544, -0.1441, -0.5460, 0.1782, 0.0000, 0.0000, 0.0000, 0.0000, 0.0000, 0.0000, 1.0000, -0.0006, 0.0012, -0.0000, 0.0000, 0.0000, 0.0000, 0.0000, 0.0000, 0.0000, 0.0000
0, 0.3700, 121, -0.5017, 0.1809, -0.8698, 0.0497, -0.2642, 0.3043, 0.0000, 0.0000, 0.0000, 0.0000, 0.0000, 0.0000, 1.0000, -0.0005, 0.0012, 0.0000, 0.0000, 0.0000, 0.0000, 0.0000, 0.0000, 0.0000, 0.0000
0, 0.3725, 122, -0.4895, 0.1693, -0.8620, -0.2898, 0.0456, -0.3755, 0.0000, 0.0000, 0.0000, 0.0000, 0.0000, 0.0000, 1.0000, -0.0006, 0.0012, 0.0000, 0.0000, 0.0000, 0.0000, 0.0000, 0.0000, 0.0000, 0.0000
0, 0.3750, 123, -0.4935, 0.1693, -0.8620, -0.0970, 0.3224, -0.4533, 0.0000, 0.0000, 0.0000, 0.0000, 0.0000, 0.0000, 1.0000, -0.0006, 0.0012, 0.0000, 0.0000, 0.0000, 0.0000, 0.0000, 0.0000, 0.0000, 0.0000
0, 0.3775, 124, -0.4935, 0.1614, -0.8657, 0.1071, 0.1382, 0.0225, 0.0000, 0.0000, 0.0000, 0.0000, 0.0000, 0.0000, 1.0000, -0.0007, 0.0011, -0.0000, 0.0000, 0.0000, 0.0000, 0.0000, 0.0000, 0.0000, 0.0000
0, 0.3800, 125, -0.4977, 0.1848, -0.8698, -0.0922, 0.0514, -0.4476, 0.0000, 0.0000, 0.0000, 0.0000, 0.0000, 0.0000, 1.0000, -0.0007, 0.0011, -0.0000, 0.0000, 0.0000, 0.0000, 0.0000, 0.0000, 0.0000, 0.0000
0, 0.3825, 126, -0.4937, 0.1809, -0.8698, 0.2360, 0.0556, -0.7944, 0.0000, 0.0000, 0.0000, 0.0000, 0.0000, 0.0000, 1.0000, -0.0007, 0.0011, 0.0000, 0.0000, 0.0000, 0.0000, 0.0000, 0.0000, 0.0000, 0.0000
0, 0.3850, 127, -0.4935, 0.1850, -0.8583, -0.2940, 0.3926, -0.0428, 0.0000, 0.0000, 0.0000, 0.0000, 0.0000, 0.0000, 1.0000, -0.0006, 0.0011, 0.0001, 0.0000, 0.0000, 0.0000, 0.0000, 0.0000, 0.0000, 0.0000
0, 0.3875, 128, -0.4894, 0.1734, -0.8505, -0.2221, 0.1291, 0.1654, 0.0000, 0.0000, 0.0000, 0.0000, 0.0000, 0.0000, 1.0000, -0.0005, 0.0011, 0.0001, 0.0000, 0.0000, 0.0000, 0.0000, 0.0000, 0.0000, 0.0000
0, 0.3900, 129, -0.4935, 0.1654, -0.8619, -0.2937, 0.2472, -0.4477, 0.0000, 0.0000, 0.0000, 0.0000, 0.0000, 0.0000, 1.0000, -0.0006, 0.0010, 0.0001, 0.0000, 0.0000, 0.0000, 0.0000, 0.0000, 0.0000, 0.0000
0, 0.3925, 130, -0.5014, 0.1772, -0.8544, 0.5658, 0.2878, -0.1260, 0.0000, 0.0000, 0.0000, 0.0000, 0.0000, 0.0000, 1.0000, -0.0005, 0.0011, 0.0001, 0.0000, 0.0000, 0.0000, 0.0000, 0.0000, 0.0000, 0.0000
0, 0.3950, 131, -0.5015, 0.1693, -0.8581, 0.4449, -0.2526, 0.1600, 0.0000, 0.0000, 0.0000, 0.0000, 0.0000, 0.0000, 1.0000, -0.0006, 0.0011, 0.0001, 0.0000, 0.0000, 0.0000, 0.0000, 0.0000, 0.0000, 0.0000
0, 0.4000, 132, -0.4935, 0.1772, -0.8582, -0.0970, 0.3224, -0.4533, 0.0000, 0.0000, 0.0000, 0.0000, 0.0000, 0.0000, 1.0000, -0.0006, 0.0011, 0.0001, 0.0000, 0.0000, 0.0000, 0.0000, 0.0000, 0.0000, 0.0000
0, 0.4025, 133, -0.4894, 0.1774, -0.8505, -0.2218, 0.1307, 0.2334, 0.0000, 0.0000, 0.0000, 0.0000, 0.0000, 0.0000, 1.0000, -0.0005, 0.0011, 0.0001, 0.0000, 0.0000, 0.0000, 0.0000, 0.0000, 0.0000, 0.0000
0, 0.4050, 134, -0.4734, 0.1734, -0.8543, -0.2270, 0.2530, -0.3132, 0.0000, 0.0000, 0.0000, 0.0000, 0.0000, 0.0000, 1.0000, -0.0005, 0.0010, 0.0001, 0.0000, 0.0000, 0.0000, 0.0000, 0.0000, 0.0000, 0.0000
0, 0.4075, 135, -0.5096, 0.1849, -0.8621, 0.1770, -0.0609, 0.0933, 0.0000, 0.0000, 0.0000, 0.0000, 0.0000, 0.0000, 1.0000, -0.0004, 0.0011, 0.0001, 0.0000, 0.0000, 0.0000, 0.0000, 0.0000, 0.0000, 0.0000
0, 0.4100, 136, -0.5018, 0.1650, -0.8812, 0.1716, 0.1341, -0.2507, 0.0000, 0.0000, 0.0000, 0.0000, 0.0000, 0.0000, 1.0000, -0.0005, 0.0010, 0.0001, 0.0000, 0.0000, 0.0000, 0.0000, 0.0000, 0.0000, 0.0000
0, 0.4125, 137, -0.5093, 0.1853, -0.8429, -0.1665, 0.6703, 0.0167, 0.0000, 0.0000, 0.0000, 0.0000, 0.0000, 0.0000, 1.0000, -0.0004, 0.0011, 0.0002, 0.0000, 0.0000, 0.0000, 0.0000, 0.0000, 0.0000, 0.0000
0, 0.4150, 138, -0.4854, 0.1735, -0.8505, 0.0330, 0.6116, 0.0819, 0.0000, 0.0000, 0.0000, 0.0000, 0.0000, 0.0000, 1.0000, -0.0004, 0.0011, 0.0002, 0.0000, 0.0000, 0.0000, 0.0000, 0.0000, 0.0000, 0.0000
0, 0.4175, 139, -0.4974, 0.1694, -0.8543, 0.6329, 0.2953, 0.0765, 0.0000, 0.0000, 0.0000, 0.0000, 0.0000, 0.0000, 1.0000, -0.0004, 0.0011, 0.0002, 0.0000, 0.0000, 0.0000, 0.0000, 0.0000, 0.0000, 0.0000
0, 0.4200, 140, -0.5016, 0.1730, -0.8697, 0.7161, -0.5021, 0.6359, 0.0000, 0.0000, 0.0000, 0.0000, 0.0000, 0.0000, 1.0000, -0.0004, 0.0011, 0.0001, 0.0000, 0.0000, 0.0000, 0.0000, 0.0000, 0.0000, 0.0000
0, 0.4225, 141, -0.4976, 0.1612, -0.8734, 0.1859, -0.3865, 0.6442, 0.0000, 0.0000, 0.0000, 0.0000, 0.0000, 0.0000, 1.0000, -0.0004, 0.0011, 0.0001, 0.0000, 0.0000, 0.0000, 0.0000, 0.0000, 0.0000, 0.0000
0, 0.4300, 142, -0.4894, 0.1616, -0.8542, 0.2472, -0.4055, -0.2408, 0.0000, 0.0000, 0.0000, 0.0000, 0.0000, 0.0000, 1.0000, -0.0006, 0.0010, 0.0000, 0.0000, 0.0000, 0.0000, 0.0000, 0.0000, 0.0000, 0.0000
0, 0.4325, 143, -0.4815, 0.1733, -0.8582, -0.2101, -0.5485, 0.1796, 0.0000, 0.0000, 0.0000, 0.0000, 0.0000, 0.0000, 1.0000, -0.0006, 0.0010, 0.0000, 0.0000, 0.0000, 0.0000, 0.0000, 0.0000, 0.0000, 0.0000
0, 0.4350, 144, -0.4894, 0.1734, -0.8543, -0.4876, 0.1852, 0.1016, 0.0000, 0.0000, 0.0000, 0.0000, 0.0000, 0.0000, 1.0000, -0.0006, 0.0009, 0.0000, 0.0000, 0.0000, 0.0000, 0.0000, 0.0000, 0.0000, 0.0000
0, 0.4375, 145, -0.4897, 0.1770, -0.8698, -0.9423, -0.2387, 0.1199, 0.0000, 0.0000, 0.0000, 0.0000, 0.0000, 0.0000, 1.0000, -0.0005, 0.0009, 0.0000, 0.0000, 0.0000, 0.0000, 0.0000, 0.0000, 0.0000, 0.0000
0, 0.4425, 146, -0.5176, 0.1809, -0.8621, -0.3597, 0.2447, -0.4463, 0.0000, 0.0000, 0.0000, 0.0000, 0.0000, 0.0000, 1.0000, -0.0005, 0.0008, 0.0001, 0.0000, 0.0000, 0.0000, 0.0000, 0.0000, 0.0000, 0.0000
0, 0.4450, 147, -0.4934, 0.1694, -0.8543, -0.3667, 0.7256, -0.1844, 0.0000, 0.0000, 0.0000, 0.0000, 0.0000, 0.0000, 1.0000, -0.0005, 0.0008, 0.0001, 0.0000, 0.0000, 0.0000, 0.0000, 0.0000, 0.0000, 0.0000
0, 0.4475, 148, -0.4976, 0.1731, -0.8659, -0.4808, -0.2230, 0.0421, 0.0000, 0.0000, 0.0000, 0.0000, 0.0000, 0.0000, 1.0000, -0.0004, 0.0008, 0.0001, 0.0000, 0.0000, 0.0000, 0.0000, 0.0000, 0.0000, 0.0000
0, 0.4500, 149, -0.5014, 0.1812, -0.8544, -0.1467, -0.4849, -0.0950, 0.0000, 0.0000, 0.0000, 0.0000, 0.0000, 0.0000, 1.0000, -0.0004, 0.0008, 0.0001, 0.0000, 0.0000, 0.0000, 0.0000, 0.0000, 0.0000, 0.0000
0, 0.4525, 150, -0.4974, 0.1734, -0.8505, 0.2465, -0.1890, 0.2987, 0.0000, 0.0000, 0.0000, 0.0000, 0.0000, 0.0000, 1.0000, -0.0004, 0.0009, 0.0001, 0.0000, 0.0000, 0.0000, 0.0000, 0.0000, 0.0000, 0.0000
0, 0.4550, 151, -0.4976, 0.1888, -0.8622, -0.4095, -0.5626, -0.0881, 0.0000, 0.0000, 0.0000, 0.0000, 0.0000, 0.0000, 1.0000, -0.0003, 0.0009, 0.0002, 0.0000, 0.0000, 0.0000, 0.0000, 0.0000, 0.0000, 0.0000
0, 0.4575, 152, -0.4935, 0.1771, -0.8621, -0.3520, -0.2329, -0.5723, 0.0000, 0.0000, 0.0000, 0.0000, 0.0000, 0.0000, 1.0000, -0.0003, 0.0009, 0.0002, 0.0000, 0.0000, 0.0000, 0.0000, 0.0000, 0.0000, 0.0000
0, 0.4600, 153, -0.4935, 0.1772, -0.8582, -0.4138, -0.3626, -0.2283, 0.0000, 0.0000, 0.0000, 0.0000, 0.0000, 0.0000, 1.0000, -0.0002, 0.0009, 0.0002, 0.0000, 0.0000, 0.0000, 0.0000, 0.0000, 0.0000, 0.0000
0, 0.4625, 154, -0.4934, 0.1655, -0.8581, -0.4863, 0.0447, -0.0995, 0.0000, 0.0000, 0.0000, 0.0000, 0.0000, 0.0000, 1.0000, -0.0003, 0.0009, 0.0002, 0.0000, 0.0000, 0.0000, 0.0000, 0.0000, 0.0000, 0.0000
0, 0.4650, 155, -0.4975, 0.1694, -0.8581, -0.2881, -0.0932, -0.5086, 0.0000, 0.0000, 0.0000, 0.0000, 0.0000, 0.0000, 1.0000, -0.0003, 0.0009, 0.0002, 0.0000, 0.0000, 0.0000, 0.0000, 0.0000, 0.0000, 0.0000
0, 0.4675, 156, -0.5014, 0.1734, -0.8505, 0.1088, -0.2204, -0.7859, 0.0000, 0.0000, 0.0000, 0.0000, 0.0000, 0.0000, 1.0000, -0.0003, 0.0009, 0.0002, 0.0000, 0.0000, 0.0000, 0.0000, 0.0000, 0.0000, 0.0000
0, 0.4700, 157, -0.4975, 0.1733, -0.8582, -0.0146, -0.5526, -0.3003, 0.0000, 0.0000, 0.0000, 0.0000, 0.0000, 0.0000, 1.0000, -0.0003, 0.0010, 0.0002, 0.0000, 0.0000, 0.0000, 0.0000, 0.0000, 0.0000, 0.0000
0, 0.4725, 158, -0.4975, 0.1614, -0.8657, 0.7769, -0.2302, 0.5608, 0.0000, 0.0000, 0.0000, 0.0000, 0.0000, 0.0000, 1.0000, -0.0003, 0.0010, 0.0002, 0.0000, 0.0000, 0.0000, 0.0000, 0.0000, 0.0000, 0.0000
0, 0.4750, 159, -0.4976, 0.1730, -0.8697, 0.3759, -0.1956, -0.1798, 0.0000, 0.0000, 0.0000, 0.0000, 0.0000, 0.0000, 1.0000, -0.0003, 0.0010, 0.0002, 0.0000, 0.0000, 0.0000, 0.0000, 0.0000, 0.0000, 0.0000
0, 0.4775, 160, -0.4893, 0.1657, -0.8466, -0.2204, -0.0098, 0.0323, 0.0000, 0.0000, 0.0000, 0.0000, 0.0000, 0.0000, 1.0000, -0.0004, 0.0010, 0.0002, 0.0000, 0.0000, 0.0000, 0.0000, 0.0000, 0.0000, 0.0000
0, 0.4800, 161, -0.4976, 0.1731, -0.8659, 0.3097, -0.0527, 0.2265, 0.0000, 0.0000, 0.0000, 0.0000, 0.0000, 0.0000, 1.0000, -0.0004, 0.0010, 0.0002, 0.0000, 0.0000, 0.0000, 0.0000, 0.0000, 0.0000, 0.0000
0, 0.4875, 162, -0.4855, 0.1576, -0.8619, -0.3423, -0.6278, -0.0880, 0.0000, 0.0000, 0.0000, 0.0000, 0.0000, 0.0000, 1.0000, -0.0005, 0.0010, 0.0001, 0.0000, 0.0000, 0.0000, 0.0000, 0.0000, 0.0000, 0.0000
0, 0.4900, 163, -0.4976, 0.1731, -0.8659, -0.3530, -0.0908, -0.3033, 0.0000, 0.0000, 0.0000, 0.0000, 0.0000, 0.0000, 1.0000, -0.0005, 0.0010, 0.0001, 0.0000, 0.0000, 0.0000, 0.0000, 0.0000, 0.0000, 0.0000
0, 0.4925, 164, -0.5055, 0.1771, -0.8621, 0.0474, -0.2014, 0.0990, 0.0000, 0.0000, 0.0000, 0.0000, 0.0000, 0.0000, 1.0000, -0.0005, 0.0011, 0.0002, 0.0000, 0.0000, 0.0000, 0.0000, 0.0000, 0.0000, 0.0000
0, 0.4950, 165, -0.4937, 0.1770, -0.8697, -0.4874, 0.0398, -0.3034, 0.0000, 0.0000, 0.0000, 0.0000, 0.0000, 0.0000, 1.0000, -0.0004, 0.0010, 0.0002, 0.0000, 0.0000, 0.0000, 0.0000, 0.0000, 0.0000, 0.0000
0, 0.4975, 166, -0.4936, 0.1612, -0.8734, 0.1107, -0.0651, 0.0268, 0.0000, 0.0000, 0.0000, 0.0000, 0.0000, 0.0000, 1.0000, -0.0006, 0.0009, 0.0001, 0.0000, 0.0000, 0.0000, 0.0000, 0.0000, 0.0000, 0.0000
0, 0.5050, 167, -0.5095, 0.1692, -0.8620, -0.0854, -0.1370, 0.1683, 0.0000, 0.0000, 0.0000, 0.0000, 0.0000, 0.0000, 1.0000, -0.0008, 0.0012, 0.0000, 0.0000, 0.0000, 0.0000, 0.0000, 0.0000, 0.0000, 0.0000
0, 0.5075, 168, -0.4856, 0.1732, -0.8659, 0.3055, 0.0746, -0.1162, 0.0000, 0.0000, 0.0000, 0.0000, 0.0000, 0.0000, 1.0000, -0.0008, 0.0011, 0.0000, 0.0000, 0.0000, 0.0000, 0.0000, 0.0000, 0.0000, 0.0000
0, 0.5100, 169, -0.4974, 0.1616, -0.8542, -0.0852, -0.2097, -0.0342, 0.0000, 0.0000, 0.0000, 0.0000, 0.0000, 0.0000, 1.0000, -0.0009, 0.0012, -0.0000, 0.0000, 0.0000, 0.0000, 0.0000, 0.0000, 0.0000, 0.0000
0, 0.5125, 170, -0.4976, 0.1691, -0.8697, -0.1543, -0.0800, -0.1715, 0.0000, 0.0000, 0.0000, 0.0000, 0.0000, 0.0000, 1.0000, -0.0009, 0.0011, -0.0000, 0.0000, 0.0000, 0.0000, 0.0000, 0.0000, 0.0000, 0.0000
0, 0.5225, 171, -0.4815, 0.1694, -0.8581, -0.0886, -0.2990, -0.9163, 0.0000, 0.0000, 0.0000, 0.0000, 0.0000, 0.0000, 1.0000, -0.0008, 0.0011, 0.0001, 0.0000, 0.0000, 0.0000, 0.0000, 0.0000, 0.0000, 0.0000
0, 0.5250, 172, -0.4935, 0.1772, -0.8582, -0.1466, -0.5576, -0.2975, 0.0000, 0.0000, 0.0000, 0.0000, 0.0000, 0.0000, 1.0000, -0.0008, 0.0011, 0.0001, 0.0000, 0.0000, 0.0000, 0.0000, 0.0000, 0.0000, 0.0000
0, 0.5300, 173, -0.4934, 0.1615, -0.8581, -0.0110, -0.6088, 0.1769, 0.0000, 0.0000, 0.0000, 0.0000, 0.0000, 0.0000, 1.0000, -0.0008, 0.0012, 0.0001, 0.0000, 0.0000, 0.0000, 0.0000, 0.0000, 0.0000, 0.0000
0, 0.5325, 174, -0.5055, 0.1732, -0.8582, 0.2494, -0.3956, 0.1670, 0.0000, 0.0000, 0.0000, 0.0000, 0.0000, 0.0000, 1.0000, -0.0008, 0.0012, 0.0001, 0.0000, 0.0000, 0.0000, 0.0000, 0.0000, 0.0000, 0.0000
0, 0.5350, 175, -0.5177, 0.1807, -0.8736, -0.2855, 0.0654, 0.4401, 0.0000, 0.0000, 0.0000, 0.0000, 0.0000, 0.0000, 1.0000, -0.0008, 0.0012, 0.0001, 0.0000, 0.0000, 0.0000, 0.0000, 0.0000, 0.0000, 0.0000
0, 0.5375, 176, -0.4974, 0.1615, -0.8581, 0.1069, 0.2109, 0.2250, 0.0000, 0.0000, 0.0000, 0.0000, 0.0000, 0.0000, 1.0000, -0.0008, 0.0013, 0.0000, 0.0000, 0.0000, 0.0000, 0.0000, 0.0000, 0.0000, 0.0000
0, 0.5400, 177, -0.4855, 0.1654, -0.8619, -0.2197, -0.0065, 0.1682, 0.0000, 0.0000, 0.0000, 0.0000, 0.0000, 0.0000, 1.0000, -0.0009, 0.0012, 0.0000, 0.0000, 0.0000, 0.0000, 0.0000, 0.0000, 0.0000, 0.0000
0, 0.5425, 178, -0.4896, 0.1771, -0.8659, 0.3209, -0.6608, 0.3073, 0.0000, 0.0000, 0.0000, 0.0000, 0.0000, 0.0000, 1.0000, -0.0009, 0.0011, 0.0000, 0.0000, 0.0000, 0.0000, 0.0000, 0.0000, 0.0000, 0.0000
0, 0.5450, 179, -0.4974, 0.1694, -0.8543, 0.0510, -0.1849, 0.7786, 0.0000, 0.0000, 0.0000, 0.0000, 0.0000, 0.0000, 1.0000, -0.0009, 0.0012, 0.0000, 0.0000, 0.0000, 0.0000, 0.0000, 0.0000, 0.0000, 0.0000
0, 0.5500, 180, -0.4976, 0.1692, -0.8658, -0.0927, 0.3423, 0.3622, 0.0000, 0.0000, 0.0000, 0.0000, 0.0000, 0.0000, 1.0000, -0.0009, 0.0011, -0.0000, 0.0000, 0.0000, 0.0000, 0.0000, 0.0000, 0.0000, 0.0000
0, 0.5525, 181, -0.4973, 0.1578, -0.8503, 0.3063, -0.1419, -0.6556, 0.0000, 0.0000, 0.0000, 0.0000, 0.0000, 0.0000, 1.0000, -0.0010, 0.0012, -0.0000, 0.0000, 0.0000, 0.0000, 0.0000, 0.0000, 0.0000, 0.0000
0, 0.5550, 182, -0.5055, 0.1850, -0.8583, 0.1757, -0.1403, -0.3810, 0.0000, 0.0000, 0.0000, 0.0000, 0.0000, 0.0000, 1.0000, -0.0009, 0.0012, -0.0000, 0.0000, 0.0000, 0.0000, 0.0000, 0.0000, 0.0000, 0.0000
0, 0.5600, 183, -0.4975, 0.1733, -0.8582, 0.1155, -0.3361, 0.0325, 0.0000, 0.0000, 0.0000, 0.0000, 0.0000, 0.0000, 1.0000, -0.0009, 0.0014, -0.0000, 0.0000, 0.0000, 0.0000, 0.0000, 0.0000, 0.0000, 0.0000
0, 0.5625, 184, -0.5015, 0.1772, -0.8582, 0.1143, -0.2683, 0.0310, 0.0000, 0.0000, 0.0000, 0.0000, 0.0000, 0.0000, 1.0000, -0.0008, 0.0014, -0.0000, 0.0000, 0.0000, 0.0000, 0.0000, 0.0000, 0.0000, 0.0000
0, 0.5650, 185, -0.5056, 0.1730, -0.8697, -0.1562, -0.0155, -0.3089, 0.0000, 0.0000, 0.0000, 0.0000, 0.0000, 0.0000, 1.0000, -0.0008, 0.0014, -0.0000, 0.0000, 0.0000, 0.0000, 0.0000, 0.0000, 0.0000, 0.0000
0, 0.5675, 186, -0.5056, 0.1848, -0.8660, -0.0241, 0.0638, -0.0413, 0.0000, 0.0000, 0.0000, 0.0000, 0.0000, 0.0000, 1.0000, -0.0007, 0.0015, -0.0000, 0.0000, 0.0000, 0.0000, 0.0000, 0.0000, 0.0000, 0.0000
0, 0.5725, 187, -0.4936, 0.1731, -0.8659, 0.4489, -0.3071, 0.7051, 0.0000, 0.0000, 0.0000, 0.0000, 0.0000, 0.0000, 1.0000, -0.0006, 0.0015, -0.0000, 0.0000, 0.0000, 0.0000, 0.0000, 0.0000, 0.0000, 0.0000
0, 0.5750, 188, -0.5056, 0.1691, -0.8697, -0.3444, -0.2709, 0.6525, 0.0000, 0.0000, 0.0000, 0.0000, 0.0000, 0.0000, 1.0000, -0.0006, 0.0015, -0.0000, 0.0000, 0.0000, 0.0000, 0.0000, 0.0000, 0.0000, 0.0000
0, 0.5775, 189, -0.5176, 0.1730, -0.8659, -0.0888, 0.1406, 0.4345, 0.0000, 0.0000, 0.0000, 0.0000, 0.0000, 0.0000, 1.0000, -0.0006, 0.0015, -0.0000, 0.0000, 0.0000, 0.0000, 0.0000, 0.0000, 0.0000, 0.0000
0, 0.5800, 190, -0.4976, 0.1770, -0.8659, -0.4297, 0.6636, 0.1582, 0.0000, 0.0000, 0.0000, 0.0000, 0.0000, 0.0000, 1.0000, -0.0006, 0.0015, -0.0000, 0.0000, 0.0000, 0.0000, 0.0000, 0.0000, 0.0000, 0.0000
0, 0.5825, 191, -0.4816, 0.1692, -0.8697, 0.1123, -0.3510, -0.5792, 0.0000, 0.0000, 0.0000, 0.0000, 0.0000, 0.0000, 1.0000, -0.0006, 0.0015, -0.0000, 0.0000, 0.0000, 0.0000, 0.0000, 0.0000, 0.0000, 0.0000
0, 0.5900, 192, -0.5014, 0.1812, -0.8544, 0.3082, -0.2064, -0.5183, 0.0000, 0.0000, 0.0000, 0.0000, 0.0000, 0.0000, 1.0000, -0.0006, 0.0015, -0.0000, 0.0000, 0.0000, 0.0000, 0.0000, 0.0000, 0.0000, 0.0000
0, 0.5925, 193, -0.4977, 0.1770, -0.8697, -0.1458, -0.6270, -0.3641, 0.0000, 0.0000, 0.0000, 0.0000, 0.0000, 0.0000, 1.0000, -0.0006, 0.0015, 0.0000, 0.0000, 0.0000, 0.0000, 0.0000, 0.0000, 0.0000, 0.0000
0, 0.5950, 194, -0.5017, 0.1887, -0.8699, 0.2322, 0.3315, -0.5962, 0.0000, 0.0000, 0.0000, 0.0000, 0.0000, 0.0000, 1.0000, -0.0006, 0.0014, 0.0000, 0.0000, 0.0000, 0.0000, 0.0000, 0.0000, 0.0000, 0.0000
0, 0.5975, 195, -0.4935, 0.1693, -0.8620, 0.3721, 0.1531, 0.2208, 0.0000, 0.0000, 0.0000, 0.0000, 0.0000, 0.0000, 1.0000, -0.0006, 0.0014, 0.0000, 0.0000, 0.0000, 0.0000, 0.0000, 0.0000, 0.0000, 0.0000
0, 0.6000, 196, -0.4895, 0.1694, -0.8581, -0.2792, -0.4188, 0.0422, 0.0000, 0.0000, 0.0000, 0.0000, 0.0000, 0.0000, 1.0000, -0.0006, 0.0014, 0.0000, 0.0000, 0.0000, 0.0000, 0.0000, 0.0000, 0.0000, 0.0000
0, 0.6025, 197, -0.5055, 0.1456, -0.8694, -0.0183, -0.1295, 0.3708, 0.0000, 0.0000, 0.0000, 0.0000, 0.0000, 0.0000, 1.0000, -0.0008, 0.0014, -0.0000, 0.0000, 0.0000, 0.0000, 0.0000, 0.0000, 0.0000, 0.0000
0, 0.6050, 198, -0.5135, 0.1731, -0.8620, -0.5443, -0.2139, 0.5193, 0.0000, 0.0000, 0.0000, 0.0000, 0.0000, 0.0000, 1.0000, -0.0008, 0.0015, -0.0000, 0.0000, 0.0000, 0.0000, 0.0000, 0.0000, 0.0000, 0.0000
0, 0.6075, 199, -0.4937, 0.1808, -0.8736, -0.5431, -0.4287, 0.0478, 0.0000, 0.0000, 0.0000, 0.0000, 0.0000, 0.0000, 1.0000, -0.0007, 0.0015, -0.0000, 0.0000, 0.0000, 0.0000, 0.0000, 0.0000, 0.0000, 0.0000
0, 0.6125, 200, -0.4777, 0.1770, -0.8736, -0.1572, 0.2737, 0.4330, 0.0000, 0.0000, 0.0000, 0.0000, 0.0000, 0.0000, 1.0000, -0.0007, 0.0013, -0.0000, 0.0000, 0.0000, 0.0000, 0.0000, 0.0000, 0.0000, 0.0000
0, 0.6150, 201, -0.4937, 0.1769, -0.8736, 0.7649, 0.4473, 0.5466, 0.0000, 0.0000, 0.0000, 0.0000, 0.0000, 0.0000, 1.0000, -0.0007, 0.0013, -0.0000, 0.0000, 0.0000, 0.0000, 0.0000, 0.0000, 0.0000, 0.0000
0, 0.6175, 202, -0.4894, 0.1616, -0.8581, 0.4365, 0.0019, -0.5253, 0.0000, 0.0000, 0.0000, 0.0000, 0.0000, 0.0000, 1.0000, -0.0007, 0.0013, -0.0000, 0.0000, 0.0000, 0.0000, 0.0000, 0.0000, 0.0000, 0.0000
0, 0.6200, 203, -0.5092, 0.1735, -0.8428, -0.0874, -0.2196, -0.4419, 0.0000, 0.0000, 0.0000, 0.0000, 0.0000, 0.0000, 1.0000, -0.0007, 0.0014, -0.0000, 0.0000, 0.0000, 0.0000, 0.0000, 0.0000, 0.0000, 0.0000
0, 0.6225, 204, -0.5016, 0.1731, -0.8659, 0.5731, -0.3385, -0.7928, 0.0000, 0.0000, 0.0000, 0.0000, 0.0000, 0.0000, 1.0000, -0.0007, 0.0014, -0.0000, 0.0000, 0.0000, 0.0000, 0.0000, 0.0000, 0.0000, 0.0000
0, 0.6275, 205, -0.4976, 0.1849, -0.8660, 0.2479, -0.4022, -0.1048, 0.0000, 0.0000, 0.0000, 0.0000, 0.0000, 0.0000, 1.0000, -0.0007, 0.0013, -0.0000, 0.0000, 0.0000, 0.0000, 0.0000, 0.0000, 0.0000, 0.0000
0, 0.6300, 206, -0.4936, 0.1770, -0.8659, 0.0462, -0.2808, -0.3753, 0.0000, 0.0000, 0.0000, 0.0000, 0.0000, 0.0000, 1.0000, -0.0007, 0.0013, -0.0000, 0.0000, 0.0000, 0.0000, 0.0000, 0.0000, 0.0000, 0.0000
0, 0.6325, 207, -0.5015, 0.1772, -0.8582, -0.1469, -0.4122, 0.1074, 0.0000, 0.0000, 0.0000, 0.0000, 0.0000, 0.0000, 1.0000, -0.0007, 0.0013, 0.0000, 0.0000, 0.0000, 0.0000, 0.0000, 0.0000, 0.0000, 0.0000
0, 0.6350, 208, -0.4937, 0.1770, -0.8697, 0.4418, -0.1204, 0.0212, 0.0000, 0.0000, 0.0000, 0.0000, 0.0000, 0.0000, 1.0000, -0.0006, 0.0013, 0.0000, 0.0000, 0.0000, 0.0000, 0.0000, 0.0000, 0.0000, 0.0000
0, 0.6375, 209, -0.5015, 0.1653, -0.8658, 0.1102, 0.1531, 0.6342, 0.0000, 0.0000, 0.0000, 0.0000, 0.0000, 0.0000, 1.0000, -0.0007, 0.0013, -0.0000, 0.0000, 0.0000, 0.0000, 0.0000, 0.0000, 0.0000, 0.0000
0, 0.6400, 210, -0.5017, 0.1730, -0.8735, 0.5002, 0.2870, -0.0567, 0.0000, 0.0000, 0.0000, 0.0000, 0.0000, 0.0000, 1.0000, -0.0007, 0.0013, -0.0000, 0.0000, 0.0000, 0.0000, 0.0000, 0.0000, 0.0000, 0.0000
0, 0.6425, 211, -0.4894, 0.1655, -0.8581, 0.6961, 0.4316, 0.0043, 0.0000, 0.0000, 0.0000, 0.0000, 0.0000, 0.0000, 1.0000, -0.0007, 0.0013, -0.0000, 0.0000, 0.0000, 0.0000, 0.0000, 0.0000, 0.0000, 0.0000
0, 0.6450, 212, -0.4896, 0.1810, -0.8659, 0.4361, 0.2200, 0.0821, 0.0000, 0.0000, 0.0000, 0.0000, 0.0000, 0.0000, 1.0000, -0.0007, 0.0012, -0.0000, 0.0000, 0.0000, 0.0000, 0.0000, 0.0000, 0.0000, 0.0000
0, 0.6550, 213, -0.4894, 0.1773, -0.8544, 0.4464, -0.4658, -0.2435, 0.0000, 0.0000, 0.0000, 0.0000, 0.0000, 0.0000, 1.0000, -0.0007, 0.0012, -0.0000, 0.0000, 0.0000, 0.0000, 0.0000, 0.0000, 0.0000, 0.0000
0, 0.6575, 214, -0.4896, 0.1810, -0.8621, 0.3122, -0.2609, 0.0269, 0.0000, 0.0000, 0.0000, 0.0000, 0.0000, 0.0000, 1.0000, -0.0006, 0.0011, 0.0000, 0.0000, 0.0000, 0.0000, 0.0000, 0.0000, 0.0000, 0.0000
0, 0.6600, 215, -0.4934, 0.1694, -0.8543, 0.1181, -0.3972, 0.3057, 0.0000, 0.0000, 0.0000, 0.0000, 0.0000, 0.0000, 1.0000, -0.0006, 0.0011, -0.0000, 0.0000, 0.0000, 0.0000, 0.0000, 0.0000, 0.0000, 0.0000
0, 0.6625, 216, -0.4855, 0.1811, -0.8583, 0.6555, -0.8467, 0.5084, 0.0000, 0.0000, 0.0000, 0.0000, 0.0000, 0.0000, 1.0000, -0.0006, 0.0011, -0.0000, 0.0000, 0.0000, 0.0000, 0.0000, 0.0000, 0.0000, 0.0000
0, 0.6650, 217, -0.4815, 0.1654, -0.8619, 0.3129, -0.2576, 0.1628, 0.0000, 0.0000, 0.0000, 0.0000, 0.0000, 0.0000, 1.0000, -0.0007, 0.0011, -0.0001, 0.0000, 0.0000, 0.0000, 0.0000, 0.0000, 0.0000, 0.0000
0, 0.6675, 218, -0.4976, 0.1652, -0.8696, 0.1062, 0.2076, 0.0890, 0.0000, 0.0000, 0.0000, 0.0000, 0.0000, 0.0000, 1.0000, -0.0007, 0.0010, -0.0001, 0.0000, 0.0000, 0.0000, 0.0000, 0.0000, 0.0000, 0.0000
0, 0.6700, 219, -0.4936, 0.1692, -0.8658, -0.2258, 0.3323, 0.1611, 0.0000, 0.0000, 0.0000, 0.0000, 0.0000, 0.0000, 1.0000, -0.0007, 0.0010, -0.0001, 0.0000, 0.0000, 0.0000, 0.0000, 0.0000, 0.0000, 0.0000
0, 0.6725, 220, -0.5055, 0.1692, -0.8620, -0.2177, -0.1436, 0.1031, 0.0000, 0.0000, 0.0000, 0.0000, 0.0000, 0.0000, 1.0000, -0.0008, 0.0011, -0.0001, 0.0000, 0.0000, 0.0000, 0.0000, 0.0000, 0.0000, 0.0000
0, 0.6750, 221, -0.4935, 0.1693, -0.8620, 0.3669, 0.4225, 0.1472, 0.0000, 0.0000, 0.0000, 0.0000, 0.0000, 0.0000, 1.0000, -0.0008, 0.0011, -0.0001, 0.0000, 0.0000, 0.0000, 0.0000, 0.0000, 0.0000, 0.0000
0, 0.6775, 222, -0.4976, 0.1692, -0.8658, 0.1098, 0.2241, 0.7687, 0.0000, 0.0000, 0.0000, 0.0000, 0.0000, 0.0000, 1.0000, -0.0008, 0.0010, -0.0001, 0.0000, 0.0000, 0.0000, 0.0000, 0.0000, 0.0000, 0.0000
0, 0.6825, 223, -0.4817, 0.1651, -0.8773, -0.1491, -0.2023, 0.3750, 0.0000, 0.0000, 0.0000, 0.0000, 0.0000, 0.0000, 1.0000, -0.0009, 0.0009, -0.0002, 0.0000, 0.0000, 0.0000, 0.0000, 0.0000, 0.0000, 0.0000
0, 0.6850, 224, -0.4891, 0.1620, -0.8350, 0.5111, -0.1757, 0.4290, 0.0000, 0.0000, 0.0000, 0.0000, 0.0000, 0.0000, 1.0000, -0.0010, 0.0009, -0.0002, 0.0000, 0.0000, 0.0000, 0.0000, 0.0000, 0.0000, 0.0000
0, 0.6875, 225, -0.4973, 0.1538, -0.8503, -0.4248, 0.3199, -0.0386, 0.0000, 0.0000, 0.0000, 0.0000, 0.0000, 0.0000, 1.0000, -0.0010, 0.0010, -0.0002, 0.0000, 0.0000, 0.0000, 0.0000, 0.0000, 0.0000, 0.0000
0, 0.6925, 226, -0.4977, 0.1651, -0.8735, -0.2134, -0.4907, -0.2296, 0.0000, 0.0000, 0.0000, 0.0000, 0.0000, 0.0000, 1.0000, -0.0011, 0.0010, -0.0003, 0.0000, 0.0000, 0.0000, 0.0000, 0.0000, 0.0000, 0.0000
0, 0.6950, 227, -0.4816, 0.1693, -0.8658, 0.1820, -0.4047, -0.1034, 0.0000, 0.0000, 0.0000, 0.0000, 0.0000, 0.0000, 1.0000, -0.0011, 0.0009, -0.0002, 0.0000, 0.0000, 0.0000, 0.0000, 0.0000, 0.0000, 0.0000
0, 0.6975, 228, -0.5096, 0.1692, -0.8658, 0.1827, -0.4014, 0.0325, 0.0000, 0.0000, 0.0000, 0.0000, 0.0000, 0.0000, 1.0000, -0.0011, 0.0010, -0.0003, 0.0000, 0.0000, 0.0000, 0.0000, 0.0000, 0.0000, 0.0000
0, 0.7000, 229, -0.4895, 0.1694, -0.8581, 0.0461, -0.0610, 0.3000, 0.0000, 0.0000, 0.0000, 0.0000, 0.0000, 0.0000, 1.0000, -0.0011, 0.0009, -0.0003, 0.0000, 0.0000, 0.0000, 0.0000, 0.0000, 0.0000, 0.0000
0, 0.7025, 230, -0.4894, 0.1852, -0.8506, -0.2163, -0.1370, 0.3750, 0.0000, 0.0000, 0.0000, 0.0000, 0.0000, 0.0000, 1.0000, -0.0010, 0.0009, -0.0002, 0.0000, 0.0000, 0.0000, 0.0000, 0.0000, 0.0000, 0.0000
0, 0.7075, 231, -0.4976, 0.1770, -0.8659, 0.1803, -0.2659, 0.0296, 0.0000, 0.0000, 0.0000, 0.0000, 0.0000, 0.0000, 1.0000, -0.0010, 0.0009, -0.0002, 0.0000, 0.0000, 0.0000, 0.0000, 0.0000, 0.0000, 0.0000
0, 0.7100, 232, -0.4893, 0.1735, -0.8467, -0.1523, -0.2172, -0.2367, 0.0000, 0.0000, 0.0000, 0.0000, 0.0000, 0.0000, 1.0000, -0.0009, 0.0009, -0.0002, 0.0000, 0.0000, 0.0000, 0.0000, 0.0000, 0.0000, 0.0000
0, 0.7125, 233, -0.4933, 0.1696, -0.8466, -0.2855, -0.3015, -0.7082, 0.0000, 0.0000, 0.0000, 0.0000, 0.0000, 0.0000, 1.0000, -0.0009, 0.0010, -0.0002, 0.0000, 0.0000, 0.0000, 0.0000, 0.0000, 0.0000, 0.0000
0, 0.7150, 234, -0.4975, 0.1694, -0.8581, -0.1564, 0.0572, -0.1064, 0.0000, 0.0000, 0.0000, 0.0000, 0.0000, 0.0000, 1.0000, -0.0009, 0.0010, -0.0002, 0.0000, 0.0000, 0.0000, 0.0000, 0.0000, 0.0000, 0.0000
0, 0.7175, 235, -0.5015, 0.1850, -0.8583, -0.0132, -0.5460, -0.0284, 0.0000, 0.0000, 0.0000, 0.0000, 0.0000, 0.0000, 1.0000, -0.0009, 0.0010, -0.0001, 0.0000, 0.0000, 0.0000, 0.0000, 0.0000, 0.0000, 0.0000
0, 0.7200, 236, -0.5016, 0.1652, -0.8696, 0.7173, -0.9367, -0.5110, 0.0000, 0.0000, 0.0000, 0.0000, 0.0000, 0.0000, 1.0000, -0.0009, 0.0011, -0.0001, 0.0000, 0.0000, 0.0000, 0.0000, 0.0000, 0.0000, 0.0000
0, 0.7225, 237, -0.5093, 0.1695, -0.8504, 0.2523, -0.6021, 0.0354, 0.0000, 0.0000, 0.0000, 0.0000, 0.0000, 0.0000, 1.0000, -0.0009, 0.0012, -0.0002, 0.0000, 0.0000, 0.0000, 0.0000, 0.0000, 0.0000, 0.0000
0, 0.7250, 238, -0.4937, 0.1691, -0.8735, 0.0470, -0.3502, -0.4419, 0.0000, 0.0000, 0.0000, 0.0000, 0.0000, 0.0000, 1.0000, -0.0009, 0.0011, -0.0002, 0.0000, 0.0000, 0.0000, 0.0000, 0.0000, 0.0000, 0.0000
0, 0.7275, 239, -0.4935, 0.1694, -0.8581, 0.0484, -0.4906, -0.6429, 0.0000, 0.0000, 0.0000, 0.0000, 0.0000, 0.0000, 1.0000, -0.0009, 0.0011, -0.0001, 0.0000, 0.0000, 0.0000, 0.0000, 0.0000, 0.0000, 0.0000
0, 0.7300, 240, -0.5053, 0.1695, -0.8466, 0.0494, -0.4857, -0.4390, 0.0000, 0.0000, 0.0000, 0.0000, 0.0000, 0.0000, 1.0000, -0.0009, 0.0012, -0.0001, 0.0000, 0.0000, 0.0000, 0.0000, 0.0000, 0.0000, 0.0000
0, 0.7350, 241, -0.5135, 0.1692, -0.8620, 0.4421, -0.1187, 0.0892, 0.0000, 0.0000, 0.0000, 0.0000, 0.0000, 0.0000, 1.0000, -0.0010, 0.0013, -0.0002, 0.0000, 0.0000, 0.0000, 0.0000, 0.0000, 0.0000, 0.0000
0, 0.7375, 242, -0.5135, 0.1810, -0.8583, -0.0295, 0.1117, -0.8582, 0.0000, 0.0000, 0.0000, 0.0000, 0.0000, 0.0000, 1.0000, -0.0010, 0.0014, -0.0002, 0.0000, 0.0000, 0.0000, 0.0000, 0.0000, 0.0000, 0.0000
0, 0.7400, 243, -0.4976, 0.1692, -0.8658, 0.1597, 0.7389, -0.4674, 0.0000, 0.0000, 0.0000, 0.0000, 0.0000, 0.0000, 1.0000, -0.0010, 0.0014, -0.0002, 0.0000, 0.0000, 0.0000, 0.0000, 0.0000, 0.0000, 0.0000
0, 0.7425, 244, -0.4937, 0.1808, -0.8736, 0.1122, -0.1312, 0.0962, 0.0000, 0.0000, 0.0000, 0.0000, 0.0000, 0.0000, 1.0000, -0.0009, 0.0013, -0.0001, 0.0000, 0.0000, 0.0000, 0.0000, 0.0000, 0.0000, 0.0000
0, 0.7500, 245, -0.4975, 0.1693, -0.8620, 0.2402, 0.0754, 0.0211, 0.0000, 0.0000, 0.0000, 0.0000, 0.0000, 0.0000, 1.0000, -0.0011, 0.0012, -0.0002, 0.0000, 0.0000, 0.0000, 0.0000, 0.0000, 0.0000, 0.0000
0, 0.7525, 246, -0.5016, 0.1692, -0.8658, -0.3508, 0.0662, 0.5774, 0.0000, 0.0000, 0.0000, 0.0000, 0.0000, 0.0000, 1.0000, -0.0011, 0.0012, -0.0002, 0.0000, 0.0000, 0.0000, 0.0000, 0.0000, 0.0000, 0.0000
0, 0.7575, 247, -0.4896, 0.1771, -0.8659, 0.1110, -0.2105, -0.3782, 0.0000, 0.0000, 0.0000, 0.0000, 0.0000, 0.0000, 1.0000, -0.0011, 0.0012, -0.0002, 0.0000, 0.0000, 0.0000, 0.0000, 0.0000, 0.0000, 0.0000
0, 0.7600, 248, -0.5013, 0.1656, -0.8504, 0.2405, -0.0700, -0.3838, 0.0000, 0.0000, 0.0000, 0.0000, 0.0000, 0.0000, 1.0000, -0.0011, 0.0012, -0.0002, 0.0000, 0.0000, 0.0000, 0.0000, 0.0000, 0.0000, 0.0000
0, 0.7625, 249, -0.5056, 0.1652, -0.8696, -0.4209, -0.0288, -0.4393, 0.0000, 0.0000, 0.0000, 0.0000, 0.0000, 0.0000, 1.0000, -0.0011, 0.0012, -0.0002, 0.0000, 0.0000, 0.0000, 0.0000, 0.0000, 0.0000, 0.0000
0, 0.7650, 250, -0.5096, 0.1731, -0.8659, -0.2951, 0.3877, -0.2467, 0.0000, 0.0000, 0.0000, 0.0000, 0.0000, 0.0000, 1.0000, -0.0011, 0.0013, -0.0002, 0.0000, 0.0000, 0.0000, 0.0000, 0.0000, 0.0000, 0.0000
0, 0.7700, 251, -0.4896, 0.1771, -0.8659, 0.3107, -0.1948, -0.0425, 0.0000, 0.0000, 0.0000, 0.0000, 0.0000, 0.0000, 1.0000, -0.0011, 0.0012, -0.0002, 0.0000, 0.0000, 0.0000, 0.0000, 0.0000, 0.0000, 0.0000
0, 0.7725, 252, -0.4976, 0.1731, -0.8659, 0.0488, -0.3419, -0.1021, 0.0000, 0.0000, 0.0000, 0.0000, 0.0000, 0.0000, 1.0000, -0.0011, 0.0012, -0.0002, 0.0000, 0.0000, 0.0000, 0.0000, 0.0000, 0.0000, 0.0000
0, 0.7750, 253, -0.5055, 0.1574, -0.8657, 0.1789, -0.1254, 0.2307, 0.0000, 0.0000, 0.0000, 0.0000, 0.0000, 0.0000, 1.0000, -0.0012, 0.0013, -0.0002, 0.0000, 0.0000, 0.0000, 0.0000, 0.0000, 0.0000, 0.0000
0, 0.7775, 254, -0.5014, 0.1615, -0.8581, 0.7087, -0.1699, 0.3569, 0.0000, 0.0000, 0.0000, 0.0000, 0.0000, 0.0000, 1.0000, -0.0012, 0.0013, -0.0002, 0.0000, 0.0000, 0.0000, 0.0000, 0.0000, 0.0000, 0.0000
0, 0.7800, 255, -0.4933, 0.1656, -0.8504, 0.1933, -1.0855, -0.2251, 0.0000, 0.0000, 0.0000, 0.0000, 0.0000, 0.0000, 1.0000, -0.0012, 0.0013, -0.0002, 0.0000, 0.0000, 0.0000, 0.0000, 0.0000, 0.0000, 0.0000
0, 0.7825, 256, -0.4938, 0.1729, -0.8774, -0.6699, -0.9229, -0.5511, 0.0000, 0.0000, 0.0000, 0.0000, 0.0000, 0.0000, 1.0000, -0.0012, 0.0013, -0.0002, 0.0000, 0.0000, 0.0000, 0.0000, 0.0000, 0.0000, 0.0000
0, 0.7925, 257, -0.4934, 0.1655, -0.8543, -0.4199, 0.1960, 0.4400, 0.0000, 0.0000, 0.0000, 0.0000, 0.0000, 0.0000, 1.0000, -0.0013, 0.0013, -0.0002, 0.0000, 0.0000, 0.0000, 0.0000, 0.0000, 0.0000, 0.0000
0, 0.7950, 258, -0.4974, 0.1615, -0.8581, -0.3628, 0.5240, -0.1122, 0.0000, 0.0000, 0.0000, 0.0000, 0.0000, 0.0000, 1.0000, -0.0013, 0.0013, -0.0002, 0.0000, 0.0000, 0.0000, 0.0000, 0.0000, 0.0000, 0.0000
0, 0.7975, 259, -0.5054, 0.1734, -0.8505, 0.0326, 0.6100, 0.0139, 0.0000, 0.0000, 0.0000, 0.0000, 0.0000, 0.0000, 1.0000, -0.0013, 0.0014, -0.0003, 0.0000, 0.0000, 0.0000, 0.0000, 0.0000, 0.0000, 0.0000
0, 0.8000, 260, -0.5056, 0.1573, -0.8734, 0.0382, 0.1225, -0.5198, 0.0000, 0.0000, 0.0000, 0.0000, 0.0000, 0.0000, 1.0000, -0.0014, 0.0014, -0.0003, 0.0000, 0.0000, 0.0000, 0.0000, 0.0000, 0.0000, 0.0000
0, 0.8050, 261, -0.4977, 0.1691, -0.8735, 0.1110, -0.2105, -0.3782, 0.0000, 0.0000, 0.0000, 0.0000, 0.0000, 0.0000, 1.0000, -0.0015, 0.0013, -0.0002, 0.0000, 0.0000, 0.0000, 0.0000, 0.0000, 0.0000, 0.0000
0, 0.8075, 262, -0.5095, 0.1771, -0.8621, -0.1526, -0.2188, -0.3046, 0.0000, 0.0000, 0.0000, 0.0000, 0.0000, 0.0000, 1.0000, -0.0014, 0.0014, -0.0002, 0.0000, 0.0000, 0.0000, 0.0000, 0.0000, 0.0000, 0.0000
0, 0.8100, 263, -0.4934, 0.1930, -0.8507, 0.1144, -0.3411, -0.1714, 0.0000, 0.0000, 0.0000, 0.0000, 0.0000, 0.0000, 1.0000, -0.0013, 0.0014, -0.0002, 0.0000, 0.0000, 0.0000, 0.0000, 0.0000, 0.0000, 0.0000
0, 0.8125, 264, -0.5015, 0.1733, -0.8582, -0.2866, -0.0866, -0.2367, 0.0000, 0.0000, 0.0000, 0.0000, 0.0000, 0.0000, 1.0000, -0.0012, 0.0014, -0.0002, 0.0000, 0.0000, 0.0000, 0.0000, 0.0000, 0.0000, 0.0000
0, 0.8150, 265, -0.5019, 0.1766, -0.8851, -0.2825, -0.3610, -0.3670, 0.0000, 0.0000, 0.0000, 0.0000, 0.0000, 0.0000, 1.0000, -0.0012, 0.0014, -0.0002, 0.0000, 0.0000, 0.0000, 0.0000, 0.0000, 0.0000, 0.0000
0, 0.8175, 266, -0.5096, 0.1810, -0.8621, -1.0063, -0.5255, -0.4168, 0.0000, 0.0000, 0.0000, 0.0000, 0.0000, 0.0000, 1.0000, -0.0012, 0.0014, -0.0002, 0.0000, 0.0000, 0.0000, 0.0000, 0.0000, 0.0000, 0.0000
0, 0.8200, 267, -0.4975, 0.1811, -0.8583, -0.2828, -0.4353, -0.6374, 0.0000, 0.0000, 0.0000, 0.0000, 0.0000, 0.0000, 1.0000, -0.0011, 0.0015, -0.0002, 0.0000, 0.0000, 0.0000, 0.0000, 0.0000, 0.0000, 0.0000
0, 0.8225, 268, -0.5054, 0.1655, -0.8543, 0.1097, -0.1428, -0.3796, 0.0000, 0.0000, 0.0000, 0.0000, 0.0000, 0.0000, 1.0000, -0.0012, 0.0015, -0.0002, 0.0000, 0.0000, 0.0000, 0.0000, 0.0000, 0.0000, 0.0000
0, 0.8250, 269, -0.4976, 0.1692, -0.8658, -0.2738, -0.6138, 0.3863, 0.0000, 0.0000, 0.0000, 0.0000, 0.0000, 0.0000, 1.0000, -0.0012, 0.0015, -0.0002, 0.0000, 0.0000, 0.0000, 0.0000, 0.0000, 0.0000, 0.0000
0, 0.8300, 270, -0.5056, 0.1652, -0.8696, -0.0862, -0.0676, 0.2348, 0.0000, 0.0000, 0.0000, 0.0000, 0.0000, 0.0000, 1.0000, -0.0012, 0.0016, -0.0002, 0.0000, 0.0000, 0.0000, 0.0000, 0.0000, 0.0000, 0.0000
0, 0.8325, 271, -0.4976, 0.1730, -0.8697, 0.2423, -0.0618, -0.0440, 0.0000, 0.0000, 0.0000, 0.0000, 0.0000, 0.0000, 1.0000, -0.0012, 0.0015, -0.0002, 0.0000, 0.0000, 0.0000, 0.0000, 0.0000, 0.0000, 0.0000
0, 0.8350, 272, -0.4974, 0.1773, -0.8544, 0.3066, 0.2266, 0.5606, 0.0000, 0.0000, 0.0000, 0.0000, 0.0000, 0.0000, 1.0000, -0.0012, 0.0016, -0.0002, 0.0000, 0.0000, 0.0000, 0.0000, 0.0000, 0.0000, 0.0000
0, 0.8375, 273, -0.5173, 0.1656, -0.8466, 0.3747, -0.1278, -0.1813, 0.0000, 0.0000, 0.0000, 0.0000, 0.0000, 0.0000, 1.0000, -0.0012, 0.0017, -0.0002, 0.0000, 0.0000, 0.0000, 0.0000, 0.0000, 0.0000, 0.0000
0, 0.8400, 274, -0.5015, 0.1693, -0.8620, 0.0501, -0.2626, 0.3722, 0.0000, 0.0000, 0.0000, 0.0000, 0.0000, 0.0000, 1.0000, -0.0012, 0.0017, -0.0002, 0.0000, 0.0000, 0.0000, 0.0000, 0.0000, 0.0000, 0.0000
0, 0.8425, 275, -0.4935, 0.1694, -0.8581, 0.4457, -0.1022, 0.7688, 0.0000, 0.0000, 0.0000, 0.0000, 0.0000, 0.0000, 1.0000, -0.0012, 0.0017, -0.0003, 0.0000, 0.0000, 0.0000, 0.0000, 0.0000, 0.0000, 0.0000
0, 0.8450, 276, -0.4893, 0.1813, -0.8467, 0.2502, -0.4650, 0.1005, 0.0000, 0.0000, 0.0000, 0.0000, 0.0000, 0.0000, 1.0000, -0.0011, 0.0017, -0.0003, 0.0000, 0.0000, 0.0000, 0.0000, 0.0000, 0.0000, 0.0000
0, 0.8475, 277, -0.5054, 0.1930, -0.8469, -0.2791, -0.4915, -0.1602, 0.0000, 0.0000, 0.0000, 0.0000, 0.0000, 0.0000, 1.0000, -0.0010, 0.0018, -0.0003, 0.0000, 0.0000, 0.0000, 0.0000, 0.0000, 0.0000, 0.0000
0, 0.8500, 278, -0.5014, 0.1851, -0.8506, 0.2408, -0.2155, -0.7887, 0.0000, 0.0000, 0.0000, 0.0000, 0.0000, 0.0000, 1.0000, -0.0009, 0.0018, -0.0003, 0.0000, 0.0000, 0.0000, 0.0000, 0.0000, 0.0000, 0.0000
0, 0.8525, 279, -0.4893, 0.1695, -0.8505, 0.3022, 0.1324, -0.5254, 0.0000, 0.0000, 0.0000, 0.0000, 0.0000, 0.0000, 1.0000, -0.0010, 0.0018, -0.0003, 0.0000, 0.0000, 0.0000, 0.0000, 0.0000, 0.0000, 0.0000
0, 0.8550, 280, -0.4855, 0.1733, -0.8582, 0.3639, 0.4820, -0.1941, 0.0000, 0.0000, 0.0000, 0.0000, 0.0000, 0.0000, 1.0000, -0.0010, 0.0018, -0.0003, 0.0000, 0.0000, 0.0000, 0.0000, 0.0000, 0.0000, 0.0000
0, 0.8575, 281, -0.4974, 0.1694, -0.8543, 0.1150, -0.2650, 0.1670, 0.0000, 0.0000, 0.0000, 0.0000, 0.0000, 0.0000, 1.0000, -0.0010, 0.0018, -0.0003, 0.0000, 0.0000, 0.0000, 0.0000, 0.0000, 0.0000, 0.0000
0, 0.8625, 282, -0.5015, 0.1733, -0.8582, 0.7687, 0.1713, 0.3484, 0.0000, 0.0000, 0.0000, 0.0000, 0.0000, 0.0000, 1.0000, -0.0010, 0.0018, -0.0003, 0.0000, 0.0000, 0.0000, 0.0000, 0.0000, 0.0000, 0.0000
0, 0.8650, 283, -0.4894, 0.1734, -0.8543, 0.1124, -0.2039, -0.1063, 0.0000, 0.0000, 0.0000, 0.0000, 0.0000, 0.0000, 1.0000, -0.0009, 0.0017, -0.0003, 0.0000, 0.0000, 0.0000, 0.0000, 0.0000, 0.0000, 0.0000
0, 0.8675, 284, -0.4894, 0.1812, -0.8544, 0.2377, 0.2836, 0.2208, 0.0000, 0.0000, 0.0000, 0.0000, 0.0000, 0.0000, 1.0000, -0.0009, 0.0017, -0.0003, 0.0000, 0.0000, 0.0000, 0.0000, 0.0000, 0.0000, 0.0000
0, 0.8700, 285, -0.4775, 0.1693, -0.8620, 0.1765, 0.0101, 0.2278, 0.0000, 0.0000, 0.0000, 0.0000, 0.0000, 0.0000, 1.0000, -0.0009, 0.0015, -0.0003, 0.0000, 0.0000, 0.0000, 0.0000, 0.0000, 0.0000, 0.0000
0, 0.8725, 286, -0.4897, 0.1769, -0.8736, 0.3701, 0.0705, -0.3894, 0.0000, 0.0000, 0.0000, 0.0000, 0.0000, 0.0000, 1.0000, -0.0009, 0.0015, -0.0003, 0.0000, 0.0000, 0.0000, 0.0000, 0.0000, 0.0000, 0.0000
0, 0.8750, 287, -0.4896, 0.1731, -0.8659, 0.1786, -0.3468, -0.5126, 0.0000, 0.0000, 0.0000, 0.0000, 0.0000, 0.0000, 1.0000, -0.0009, 0.0014, -0.0003, 0.0000, 0.0000, 0.0000, 0.0000, 0.0000, 0.0000, 0.0000
0, 0.8775, 288, -0.5015, 0.1732, -0.8620, 0.1720, 0.2828, 0.2901, 0.0000, 0.0000, 0.0000, 0.0000, 0.0000, 0.0000, 1.0000, -0.0009, 0.0014, -0.0003, 0.0000, 0.0000, 0.0000, 0.0000, 0.0000, 0.0000, 0.0000
0, 0.8800, 289, -0.5014, 0.1615, -0.8581, -0.3495, -0.2213, -0.0966, 0.0000, 0.0000, 0.0000, 0.0000, 0.0000, 0.0000, 1.0000, -0.0009, 0.0015, -0.0003, 0.0000, 0.0000, 0.0000, 0.0000, 0.0000, 0.0000, 0.0000
0, 0.8825, 290, -0.4935, 0.1694, -0.8581, -0.5458, -0.3676, -0.2255, 0.0000, 0.0000, 0.0000, 0.0000, 0.0000, 0.0000, 1.0000, -0.0009, 0.0015, -0.0003, 0.0000, 0.0000, 0.0000, 0.0000, 0.0000, 0.0000, 0.0000
0, 0.8850, 291, -0.4857, 0.1887, -0.8699, -0.4861, 0.1191, 0.1710, 0.0000, 0.0000, 0.0000, 0.0000, 0.0000, 0.0000, 1.0000, -0.0008, 0.0014, -0.0003, 0.0000, 0.0000, 0.0000, 0.0000, 0.0000, 0.0000, 0.0000
0, 0.8875, 292, -0.4976, 0.1731, -0.8659, -0.0290, 0.4075, 0.1555, 0.0000, 0.0000, 0.0000, 0.0000, 0.0000, 0.0000, 1.0000, -0.0008, 0.0014, -0.0003, 0.0000, 0.0000, 0.0000, 0.0000, 0.0000, 0.0000, 0.0000
0, 0.8900, 293, -0.4974, 0.1654, -0.8581, -0.2829, -0.3626, -0.4349, 0.0000, 0.0000, 0.0000, 0.0000, 0.0000, 0.0000, 1.0000, -0.0009, 0.0014, -0.0003, 0.0000, 0.0000, 0.0000, 0.0000, 0.0000, 0.0000, 0.0000
0, 0.8925, 294, -0.5092, 0.1735, -0.8428, 0.1779, -0.1303, 0.0268, 0.0000, 0.0000, 0.0000, 0.0000, 0.0000, 0.0000, 1.0000, -0.0008, 0.0017, -0.0003, 0.0000, 0.0000, 0.0000, 0.0000, 0.0000, 0.0000, 0.0000
0, 0.8950, 295, -0.5016, 0.1809, -0.8659, 0.2453, -0.1212, 0.2973, 0.0000, 0.0000, 0.0000, 0.0000, 0.0000, 0.0000, 1.0000, -0.0008, 0.0017, -0.0003, 0.0000, 0.0000, 0.0000, 0.0000, 0.0000, 0.0000, 0.0000
0, 0.8975, 296, -0.5056, 0.1731, -0.8659, -0.4212, 0.1166, -0.0343, 0.0000, 0.0000, 0.0000, 0.0000, 0.0000, 0.0000, 1.0000, -0.0007, 0.0017, -0.0003, 0.0000, 0.0000, 0.0000, 0.0000, 0.0000, 0.0000, 0.0000
0, 0.9000, 297, -0.4975, 0.1771, -0.8621, 0.0464, 0.1605, 1.0433, 0.0000, 0.0000, 0.0000, 0.0000, 0.0000, 0.0000, 1.0000, -0.0007, 0.0017, -0.0003, 0.0000, 0.0000, 0.0000, 0.0000, 0.0000, 0.0000, 0.0000
0, 0.9025, 298, -0.4936, 0.1810, -0.8621, 0.3013, 0.4216, 0.2165, 0.0000, 0.0000, 0.0000, 0.0000, 0.0000, 0.0000, 1.0000, -0.0007, 0.0016, -0.0003, 0.0000, 0.0000, 0.0000, 0.0000, 0.0000, 0.0000, 0.0000
0, 0.9050, 299, -0.4975, 0.1811, -0.8583, -0.0855, -0.0643, 0.3708, 0.0000, 0.0000, 0.0000, 0.0000, 0.0000, 0.0000, 1.0000, -0.0006, 0.0016, -0.0003, 0.0000, 0.0000, 0.0000, 0.0000, 0.0000, 0.0000, 0.0000
0, 0.9075, 300, -0.4854, 0.1734, -0.8543, -0.2146, -0.2758, 0.2419, 0.0000, 0.0000, 0.0000, 0.0000, 0.0000, 0.0000, 1.0000, -0.0006, 0.0016, -0.0003, 0.0000, 0.0000, 0.0000, 0.0000, 0.0000, 0.0000, 0.0000
0, 0.9100, 301, -0.4936, 0.1534, -0.8733, -0.3511, -0.1552, -0.1659, 0.0000, 0.0000, 0.0000, 0.0000, 0.0000, 0.0000, 1.0000, -0.0007, 0.0016, -0.0003, 0.0000, 0.0000, 0.0000, 0.0000, 0.0000, 0.0000, 0.0000
0, 0.9125, 302, -0.4975, 0.1654, -0.8619, -0.1633, 0.4654, -0.0470, 0.0000, 0.0000, 0.0000, 0.0000, 0.0000, 0.0000, 1.0000, -0.0007, 0.0016, -0.0003, 0.0000, 0.0000, 0.0000, 0.0000, 0.0000, 0.0000, 0.0000
0, 0.9150, 303, -0.5016, 0.1770, -0.8659, -0.6841, -0.0355, -0.2978, 0.0000, 0.0000, 0.0000, 0.0000, 0.0000, 0.0000, 1.0000, -0.0007, 0.0016, -0.0003, 0.0000, 0.0000, 0.0000, 0.0000, 0.0000, 0.0000, 0.0000
0, 0.9175, 304, -0.5017, 0.1651, -0.8735, -0.2817, -0.4304, -0.4335, 0.0000, 0.0000, 0.0000, 0.0000, 0.0000, 0.0000, 1.0000, -0.0007, 0.0016, -0.0003, 0.0000, 0.0000, 0.0000, 0.0000, 0.0000, 0.0000, 0.0000
0, 0.9200, 305, -0.4894, 0.1734, -0.8543, 0.6439, -0.2402, 0.3597, 0.0000, 0.0000, 0.0000, 0.0000, 0.0000, 0.0000, 1.0000, -0.0007, 0.0016, -0.0003, 0.0000, 0.0000, 0.0000, 0.0000, 0.0000, 0.0000, 0.0000
0, 0.9225, 306, -0.4896, 0.1810, -0.8659, -0.2147, -0.2031, 0.4444, 0.0000, 0.0000, 0.0000, 0.0000, 0.0000, 0.0000, 1.0000, -0.0007, 0.0015, -0.0003, 0.0000, 0.0000, 0.0000, 0.0000, 0.0000, 0.0000, 0.0000
0, 0.9300, 307, -0.4935, 0.1694, -0.8581, 0.3121, -0.1882, 0.2293, 0.0000, 0.0000, 0.0000, 0.0000, 0.0000, 0.0000, 1.0000, -0.0007, 0.0014, -0.0003, 0.0000, 0.0000, 0.0000, 0.0000, 0.0000, 0.0000, 0.0000
0, 0.9325, 308, -0.4976, 0.1849, -0.8660, -0.0152, -0.2617, 0.5096, 0.0000, 0.0000, 0.0000, 0.0000, 0.0000, 0.0000, 1.0000, -0.0006, 0.0014, -0.0003, 0.0000, 0.0000, 0.0000, 0.0000, 0.0000, 0.0000, 0.0000
0, 0.9350, 309, -0.4895, 0.1732, -0.8620, 0.1139, -0.2700, -0.0369, 0.0000, 0.0000, 0.0000, 0.0000, 0.0000, 0.0000, 1.0000, -0.0006, 0.0014, -0.0004, 0.0000, 0.0000, 0.0000, 0.0000, 0.0000, 0.0000, 0.0000
0, 0.9375, 310, -0.4975, 0.1771, -0.8621, 0.2329, 0.5547, 0.2151, 0.0000, 0.0000, 0.0000, 0.0000, 0.0000, 0.0000, 1.0000, -0.0006, 0.0014, -0.0004, 0.0000, 0.0000, 0.0000, 0.0000, 0.0000, 0.0000, 0.0000
0, 0.9400, 311, -0.4976, 0.1692, -0.8658, 0.1053, 0.1299, -0.3173, 0.0000, 0.0000, 0.0000, 0.0000, 0.0000, 0.0000, 1.0000, -0.0006, 0.0013, -0.0004, 0.0000, 0.0000, 0.0000, 0.0000, 0.0000, 0.0000, 0.0000
0, 0.9450, 312, -0.4856, 0.1732, -0.8659, 0.3105, -0.1221, 0.1599, 0.0000, 0.0000, 0.0000, 0.0000, 0.0000, 0.0000, 1.0000, -0.0006, 0.0012, -0.0004, 0.0000, 0.0000, 0.0000, 0.0000, 0.0000, 0.0000, 0.0000
0, 0.9475, 313, -0.4936, 0.1770, -0.8659, -0.2901, 0.0439, -0.4435, 0.0000, 0.0000, 0.0000, 0.0000, 0.0000, 0.0000, 1.0000, -0.0006, 0.0012, -0.0004, 0.0000, 0.0000, 0.0000, 0.0000, 0.0000, 0.0000, 0.0000
0, 0.9525, 314, -0.5015, 0.1693, -0.8620, 0.1693, 0.0498, -0.9290, 0.0000, 0.0000, 0.0000, 0.0000, 0.0000, 0.0000, 1.0000, -0.0006, 0.0012, -0.0004, 0.0000, 0.0000, 0.0000, 0.0000, 0.0000, 0.0000, 0.0000
0, 0.9550, 315, -0.5055, 0.1692, -0.8620, 0.9038, -0.1757, -0.1910, 0.0000, 0.0000, 0.0000, 0.0000, 0.0000, 0.0000, 1.0000, -0.0007, 0.0012, -0.0004, 0.0000, 0.0000, 0.0000, 0.0000, 0.0000, 0.0000, 0.0000
0, 0.9575, 316, -0.4895, 0.1851, -0.8545, -0.0898, 0.1357, 0.2306, 0.0000, 0.0000, 0.0000, 0.0000, 0.0000, 0.0000, 1.0000, -0.0005, 0.0012, -0.0004, 0.0000, 0.0000, 0.0000, 0.0000, 0.0000, 0.0000, 0.0000
0, 0.9600, 317, -0.4932, 0.1618, -0.8427, -0.0985, 0.3885, -0.5227, 0.0000, 0.0000, 0.0000, 0.0000, 0.0000, 0.0000, 1.0000, -0.0006, 0.0012, -0.0003, 0.0000, 0.0000, 0.0000, 0.0000, 0.0000, 0.0000, 0.0000
0, 0.9650, 318, -0.5015, 0.1575, -0.8619, 0.3122, -0.2609, 0.0269, 0.0000, 0.0000, 0.0000, 0.0000, 0.0000, 0.0000, 1.0000, -0.0006, 0.0012, -0.0004, 0.0000, 0.0000, 0.0000, 0.0000, 0.0000, 0.0000, 0.0000
0, 0.9675, 319, -0.4858, 0.1768, -0.8774, 0.1767, -0.0626, 0.0254, 0.0000, 0.0000, 0.0000, 0.0000, 0.0000, 0.0000, 1.0000, -0.0006, 0.0011, -0.0004, 0.0000, 0.0000, 0.0000, 0.0000, 0.0000, 0.0000, 0.0000
0, 0.9725, 320, -0.5017, 0.1769, -0.8736, -0.0922, 0.0514, -0.4476, 0.0000, 0.0000, 0.0000, 0.0000, 0.0000, 0.0000, 1.0000, -0.0006, 0.0010, -0.0004, 0.0000, 0.0000, 0.0000, 0.0000, 0.0000, 0.0000, 0.0000
0, 0.9750, 321, -0.5054, 0.1811, -0.8544, -0.3467, -0.5750, -0.7011, 0.0000, 0.0000, 0.0000, 0.0000, 0.0000, 0.0000, 1.0000, -0.0005, 0.0011, -0.0003, 0.0000, 0.0000, 0.0000, 0.0000, 0.0000, 0.0000, 0.0000
0, 0.9775, 322, -0.5015, 0.1653, -0.8658, -0.2756, -0.6220, 0.0465, 0.0000, 0.0000, 0.0000, 0.0000, 0.0000, 0.0000, 1.0000, -0.0006, 0.0011, -0.0004, 0.0000, 0.0000, 0.0000, 0.0000, 0.0000, 0.0000, 0.0000
0, 0.9800, 323, -0.4977, 0.1651, -0.8773, -0.0144, -0.4782, -0.0299, 0.0000, 0.0000, 0.0000, 0.0000, 0.0000, 0.0000, 1.0000, -0.0006, 0.0011, -0.0004, 0.0000, 0.0000, 0.0000, 0.0000, 0.0000, 0.0000, 0.0000
0, 0.9825, 324, -0.4854, 0.1616, -0.8542, -0.2144, -0.5683, -0.6359, 0.0000, 0.0000, 0.0000, 0.0000, 0.0000, 0.0000, 1.0000, -0.0007, 0.0011, -0.0004, 0.0000, 0.0000, 0.0000, 0.0000, 0.0000, 0.0000, 0.0000
0, 0.9850, 325, -0.4937, 0.1690, -0.8774, -0.5495, -0.0916, -0.0273, 0.0000, 0.0000, 0.0000, 0.0000, 0.0000, 0.0000, 1.0000, -0.0007, 0.0010, -0.0004, 0.0000, 0.0000, 0.0000, 0.0000, 0.0000, 0.0000, 0.0000
0, 0.9875, 326, -0.4935, 0.1653, -0.8658, -0.3484, -0.2164, 0.1073, 0.0000, 0.0000, 0.0000, 0.0000, 0.0000, 0.0000, 1.0000, -0.0007, 0.0010, -0.0004, 0.0000, 0.0000, 0.0000, 0.0000, 0.0000, 0.0000, 0.0000
0, 0.9900, 327, -0.4934, 0.1734, -0.8543, 0.4471, -0.4625, -0.1076, 0.0000, 0.0000, 0.0000, 0.0000, 0.0000, 0.0000, 1.0000, -0.0007, 0.0010, -0.0004, 0.0000, 0.0000, 0.0000, 0.0000, 0.0000, 0.0000, 0.0000
0, 1.0000, 328, -0.4974, 0.1734, -0.8505, 0.2434, 0.0903, 0.6328, 0.0000, 0.0000, 0.0000, 0.0000, 0.0000, 0.0000, 1.0000, -0.0005, 0.0012, -0.0003, 0.0000, 0.0000, 0.0000, 0.0000, 0.0000, 0.0000, 0.0000
0, 1.0025, 329, -0.4978, 0.1689, -0.8812, -0.0137, -0.4749, 0.1061, 0.0000, 0.0000, 0.0000, 0.0000, 0.0000, 0.0000, 1.0000, -0.0005, 0.0012, -0.0003, 0.0000, 0.0000, 0.0000, 0.0000, 0.0000, 0.0000, 0.0000
0, 1.0075, 330, -0.4855, 0.1733, -0.8582, -0.4805, -0.3684, -0.3628, 0.0000, 0.0000, 0.0000, 0.0000, 0.0000, 0.0000, 1.0000, -0.0005, 0.0012, -0.0003, 0.0000, 0.0000, 0.0000, 0.0000, 0.0000, 0.0000, 0.0000
0, 1.0100, 331, -0.4857, 0.1848, -0.8698, -0.4835, -0.3089, -0.7040, 0.0000, 0.0000, 0.0000, 0.0000, 0.0000, 0.0000, 1.0000, -0.0005, 0.0011, -0.0003, 0.0000, 0.0000, 0.0000, 0.0000, 0.0000, 0.0000, 0.0000
0, 1.0125, 332, -0.5055, 0.1771, -0.8621, -0.0869, -0.0709, 0.0989, 0.0000, 0.0000, 0.0000, 0.0000, 0.0000, 0.0000, 1.0000, -0.0004, 0.0012, -0.0003, 0.0000, 0.0000, 0.0000, 0.0000, 0.0000, 0.0000, 0.0000
0, 1.0150, 333, -0.5054, 0.1773, -0.8505, -0.4851, -0.0230, -0.0980, 0.0000, 0.0000, 0.0000, 0.0000, 0.0000, 0.0000, 1.0000, -0.0004, 0.0013, -0.0002, 0.0000, 0.0000, 0.0000, 0.0000, 0.0000, 0.0000, 0.0000
0, 1.0175, 334, -0.4976, 0.1730, -0.8697, -0.8186, 0.1678, -0.0954, 0.0000, 0.0000, 0.0000, 0.0000, 0.0000, 0.0000, 1.0000, -0.0003, 0.0013, -0.0002, 0.0000, 0.0000, 0.0000, 0.0000, 0.0000, 0.0000, 0.0000
0, 1.0225, 335, -0.4895, 0.1654, -0.8619, 0.6309, 0.5795, 0.6145, 0.0000, 0.0000, 0.0000, 0.0000, 0.0000, 0.0000, 1.0000, -0.0003, 0.0012, -0.0002, 0.0000, 0.0000, 0.0000, 0.0000, 0.0000, 0.0000, 0.0000
0, 1.0250, 336, -0.4936, 0.1810, -0.8659, 0.5787, -0.0923, 0.9699, 0.0000, 0.0000, 0.0000, 0.0000, 0.0000, 0.0000, 1.0000, -0.0003, 0.0012, -0.0003, 0.0000, 0.0000, 0.0000, 0.0000, 0.0000, 0.0000, 0.0000
0, 1.0275, 337, -0.4977, 0.1691, -0.8735, 0.6465, -0.4484, 0.1601, 0.0000, 0.0000, 0.0000, 0.0000, 0.0000, 0.0000, 1.0000, -0.0004, 0.0012, -0.0003, 0.0000, 0.0000, 0.0000, 0.0000, 0.0000, 0.0000, 0.0000
0, 1.0350, 338, -0.5015, 0.1771, -0.8621, -0.4818, -0.0809, 0.3112, 0.0000, 0.0000, 0.0000, 0.0000, 0.0000, 0.0000, 1.0000, -0.0005, 0.0012, -0.0003, 0.0000, 0.0000, 0.0000, 0.0000, 0.0000, 0.0000, 0.0000
0, 1.0375, 339, -0.4815, 0.1733, -0.8582, 0.0532, -0.3948, 0.5110, 0.0000, 0.0000, 0.0000, 0.0000, 0.0000, 0.0000, 1.0000, -0.0005, 0.0012, -0.0004, 0.0000, 0.0000, 0.0000, 0.0000, 0.0000, 0.0000, 0.0000
0, 1.0400, 340, -0.4935, 0.1771, -0.8621, 0.3081, 0.0134, 0.1571, 0.0000, 0.0000, 0.0000, 0.0000, 0.0000, 0.0000, 1.0000, -0.0004, 0.0012, -0.0003, 0.0000, 0.0000, 0.0000, 0.0000, 0.0000, 0.0000, 0.0000
0, 1.0425, 341, -0.5015, 0.1693, -0.8620, 0.1143, -0.2683, 0.0310, 0.0000, 0.0000, 0.0000, 0.0000, 0.0000, 0.0000, 1.0000, -0.0005, 0.0012, -0.0004, 0.0000, 0.0000, 0.0000, 0.0000, 0.0000, 0.0000, 0.0000
0, 1.0450, 342, -0.5093, 0.1656, -0.8466, -0.1482, -0.2717, 0.3085, 0.0000, 0.0000, 0.0000, 0.0000, 0.0000, 0.0000, 1.0000, -0.0005, 0.0013, -0.0003, 0.0000, 0.0000, 0.0000, 0.0000, 0.0000, 0.0000, 0.0000
0, 1.0475, 343, -0.4974, 0.1694, -0.8543, 0.5097, -0.1824, 0.1572, 0.0000, 0.0000, 0.0000, 0.0000, 0.0000, 0.0000, 1.0000, -0.0005, 0.0014, -0.0003, 0.0000, 0.0000, 0.0000, 0.0000, 0.0000, 0.0000, 0.0000
0, 1.0500, 344, -0.5015, 0.1733, -0.8582, 0.7103, -0.2360, 0.4263, 0.0000, 0.0000, 0.0000, 0.0000, 0.0000, 0.0000, 1.0000, -0.0005, 0.0014, -0.0004, 0.0000, 0.0000, 0.0000, 0.0000, 0.0000, 0.0000, 0.0000
0, 1.0525, 345, -0.4897, 0.1652, -0.8735, -0.2178, -0.0709, 0.3056, 0.0000, 0.0000, 0.0000, 0.0000, 0.0000, 0.0000, 1.0000, -0.0006, 0.0013, -0.0004, 0.0000, 0.0000, 0.0000, 0.0000, 0.0000, 0.0000, 0.0000
0, 1.0550, 346, -0.4935, 0.1771, -0.8621, -0.1506, -0.1362, 0.3056, 0.0000, 0.0000, 0.0000, 0.0000, 0.0000, 0.0000, 1.0000, -0.0005, 0.0013, -0.0004, 0.0000, 0.0000, 0.0000, 0.0000, 0.0000, 0.0000, 0.0000
0, 1.0575, 347, -0.4977, 0.1730, -0.8736, 0.2457, -0.3394, -0.3101, 0.0000, 0.0000, 0.0000, 0.0000, 0.0000, 0.0000, 1.0000, -0.0005, 0.0013, -0.0004, 0.0000, 0.0000, 0.0000, 0.0000, 0.0000, 0.0000, 0.0000
0, 1.0600, 348, -0.5014, 0.1812, -0.8544, 0.1689, 0.2679, -0.3216, 0.0000, 0.0000, 0.0000, 0.0000, 0.0000, 0.0000, 1.0000, -0.0005, 0.0013, -0.0004, 0.0000, 0.0000, 0.0000, 0.0000, 0.0000, 0.0000, 0.0000
0, 1.0625, 349, -0.4975, 0.1693, -0.8620, 0.4319, 0.2002, -0.7335, 0.0000, 0.0000, 0.0000, 0.0000, 0.0000, 0.0000, 1.0000, -0.0005, 0.0013, -0.0004, 0.0000, 0.0000, 0.0000, 0.0000, 0.0000, 0.0000, 0.0000
0, 1.0675, 350, -0.4974, 0.1655, -0.8543, 0.3742, -0.0568, -0.0468, 0.0000, 0.0000, 0.0000, 0.0000, 0.0000, 0.0000, 1.0000, -0.0005, 0.0013, -0.0004, 0.0000, 0.0000, 0.0000, 0.0000, 0.0000, 0.0000, 0.0000
0, 1.0700, 351, -0.4975, 0.1771, -0.8621, 0.4439, -0.1105, 0.4290, 0.0000, 0.0000, 0.0000, 0.0000, 0.0000, 0.0000, 1.0000, -0.0005, 0.0013, -0.0004, 0.0000, 0.0000, 0.0000, 0.0000, 0.0000, 0.0000, 0.0000
0, 1.0725, 352, -0.4977, 0.1769, -0.8736, -0.1458, -0.4072, 0.3113, 0.0000, 0.0000, 0.0000, 0.0000, 0.0000, 0.0000, 1.0000, -0.0005, 0.0013, -0.0004, 0.0000, 0.0000, 0.0000, 0.0000, 0.0000, 0.0000, 0.0000
0, 1.0775, 353, -0.4855, 0.1851, -0.8545, -0.2217, -0.0891, -0.4420, 0.0000, 0.0000, 0.0000, 0.0000, 0.0000, 0.0000, 1.0000, -0.0004, 0.0013, -0.0003, 0.0000, 0.0000, 0.0000, 0.0000, 0.0000, 0.0000, 0.0000
0, 1.0800, 354, -0.4854, 0.1655, -0.8581, 0.4350, 0.0680, -0.5947, 0.0000, 0.0000, 0.0000, 0.0000, 0.0000, 0.0000, 1.0000, -0.0004, 0.0013, -0.0004, 0.0000, 0.0000, 0.0000, 0.0000, 0.0000, 0.0000, 0.0000
0, 1.0900, 355, -0.5016, 0.1652, -0.8696, -0.2813, -0.2816, 0.1074, 0.0000, 0.0000, 0.0000, 0.0000, 0.0000, 0.0000, 1.0000, -0.0005, 0.0013, -0.0004, 0.0000, 0.0000, 0.0000, 0.0000, 0.0000, 0.0000, 0.0000
0, 1.0925, 356, -0.5013, 0.1656, -0.8504, 0.0488, -0.3419, -0.1021, 0.0000, 0.0000, 0.0000, 0.0000, 0.0000, 0.0000, 1.0000, -0.0005, 0.0014, -0.0004, 0.0000, 0.0000, 0.0000, 0.0000, 0.0000, 0.0000, 0.0000
0, 1.0950, 357, -0.4936, 0.1731, -0.8659, -0.2818, -0.3576, -0.2310, 0.0000, 0.0000, 0.0000, 0.0000, 0.0000, 0.0000, 1.0000, -0.0005, 0.0014, -0.0004, 0.0000, 0.0000, 0.0000, 0.0000, 0.0000, 0.0000, 0.0000
0, 1.0975, 358, -0.4934, 0.1655, -0.8543, 0.2516, -0.6055, -0.1006, 0.0000, 0.0000, 0.0000, 0.0000, 0.0000, 0.0000, 1.0000, -0.0005, 0.0014, -0.0004, 0.0000, 0.0000, 0.0000, 0.0000, 0.0000, 0.0000, 0.0000
0, 1.1000, 359, -0.5095, 0.1692, -0.8620, 0.0480, -0.4923, -0.7109, 0.0000, 0.0000, 0.0000, 0.0000, 0.0000, 0.0000, 1.0000, -0.0006, 0.0014, -0.0004, 0.0000, 0.0000, 0.0000, 0.0000, 0.0000, 0.0000, 0.0000
0, 1.1025, 360, -0.5055, 0.1732, -0.8582, 0.6351, -0.1344, -0.8665, 0.0000, 0.0000, 0.0000, 0.0000, 0.0000, 0.0000, 1.0000, -0.0006, 0.0015, -0.0003, 0.0000, 0.0000, 0.0000, 0.0000, 0.0000, 0.0000, 0.0000
0, 1.1050, 361, -0.4936, 0.1731, -0.8659, -0.2218, 0.1307, 0.2334, 0.0000, 0.0000, 0.0000, 0.0000, 0.0000, 0.0000, 1.0000, -0.0006, 0.0014, -0.0003, 0.0000, 0.0000, 0.0000, 0.0000, 0.0000, 0.0000, 0.0000
0, 1.1075, 362, -0.4774, 0.1537, -0.8618, 0.3670, 0.2027, -0.5282, 0.0000, 0.0000, 0.0000, 0.0000, 0.0000, 0.0000, 1.0000, -0.0006, 0.0014, -0.0004, 0.0000, 0.0000, 0.0000, 0.0000, 0.0000, 0.0000, 0.0000
0, 1.1100, 363, -0.5016, 0.1731, -0.8659, 0.7050, -0.1137, -0.1203, 0.0000, 0.0000, 0.0000, 0.0000, 0.0000, 0.0000, 1.0000, -0.0007, 0.0014, -0.0004, 0.0000, 0.0000, 0.0000, 0.0000, 0.0000, 0.0000, 0.0000
0, 1.1125, 364, -0.4935, 0.1693, -0.8620, 0.3627, 0.5497, -0.1955, 0.0000, 0.0000, 0.0000, 0.0000, 0.0000, 0.0000, 1.0000, -0.0007, 0.0013, -0.0004, 0.0000, 0.0000, 0.0000, 0.0000, 0.0000, 0.0000, 0.0000
0, 1.1150, 365, -0.5057, 0.1887, -0.8699, 0.1006, 0.3282, -0.5255, 0.0000, 0.0000, 0.0000, 0.0000, 0.0000, 0.0000, 1.0000, -0.0006, 0.0013, -0.0004, 0.0000, 0.0000, 0.0000, 0.0000, 0.0000, 0.0000, 0.0000
0, 1.1175, 366, -0.5015, 0.1771, -0.8621, -0.3493, -0.1469, 0.1739, 0.0000, 0.0000, 0.0000, 0.0000, 0.0000, 0.0000, 1.0000, -0.0006, 0.0014, -0.0003, 0.0000, 0.0000, 0.0000, 0.0000, 0.0000, 0.0000, 0.0000
0, 1.1200, 367, -0.5175, 0.1693, -0.8581, 0.1718, 0.2084, 0.0197, 0.0000, 0.0000, 0.0000, 0.0000, 0.0000, 0.0000, 1.0000, -0.0006, 0.0015, -0.0003, 0.0000, 0.0000, 0.0000, 0.0000, 0.0000, 0.0000, 0.0000
0, 1.1225, 368, -0.4935, 0.1693, -0.8620, -0.0298, 0.2571, -0.4533, 0.0000, 0.0000, 0.0000, 0.0000, 0.0000, 0.0000, 1.0000, -0.0006, 0.0015, -0.0003, 0.0000, 0.0000, 0.0000, 0.0000, 0.0000, 0.0000, 0.0000
0, 1.1300, 369, -0.4974, 0.1615, -0.8581, 0.1181, -0.3972, 0.3057, 0.0000, 0.0000, 0.0000, 0.0000, 0.0000, 0.0000, 1.0000, -0.0007, 0.0016, -0.0003, 0.0000, 0.0000, 0.0000, 0.0000, 0.0000, 0.0000, 0.0000
0, 1.1325, 370, -0.4936, 0.1691, -0.8697, 0.7098, -0.1650, 0.5608, 0.0000, 0.0000, 0.0000, 0.0000, 0.0000, 0.0000, 1.0000, -0.0007, 0.0016, -0.0003, 0.0000, 0.0000, 0.0000, 0.0000, 0.0000, 0.0000, 0.0000
0, 1.1350, 371, -0.5057, 0.1769, -0.8736, 0.5825, -0.5880, 0.0964, 0.0000, 0.0000, 0.0000, 0.0000, 0.0000, 0.0000, 1.0000, -0.0007, 0.0016, -0.0003, 0.0000, 0.0000, 0.0000, 0.0000, 0.0000, 0.0000, 0.0000
0, 1.1375, 372, -0.5015, 0.1732, -0.8620, 0.5779, -0.3897, -0.1118, 0.0000, 0.0000, 0.0000, 0.0000, 0.0000, 0.0000, 1.0000, -0.0007, 0.0016, -0.0003, 0.0000, 0.0000, 0.0000, 0.0000, 0.0000, 0.0000, 0.0000
0, 1.1425, 373, -0.4976, 0.1731, -0.8659, 0.1124, -0.2039, -0.1063, 0.0000, 0.0000, 0.0000, 0.0000, 0.0000, 0.0000, 1.0000, -0.0008, 0.0016, -0.0004, 0.0000, 0.0000, 0.0000, 0.0000, 0.0000, 0.0000, 0.0000
0, 1.1450, 374, -0.5016, 0.1731, -0.8659, -0.0282, 0.3381, 0.0890, 0.0000, 0.0000, 0.0000, 0.0000, 0.0000, 0.0000, 1.0000, -0.0008, 0.0016, -0.0004, 0.0000, 0.0000, 0.0000, 0.0000, 0.0000, 0.0000, 0.0000
0, 1.1475, 375, -0.5015, 0.1733, -0.8582, 0.5745, -0.1121, 0.1544, 0.0000, 0.0000, 0.0000, 0.0000, 0.0000, 0.0000, 1.0000, -0.0008, 0.0017, -0.0004, 0.0000, 0.0000, 0.0000, 0.0000, 0.0000, 0.0000, 0.0000
0, 1.1500, 376, -0.5057, 0.1769, -0.8697, 0.3086, -0.0576, 0.0226, 0.0000, 0.0000, 0.0000, 0.0000, 0.0000, 0.0000, 1.0000, -0.0008, 0.0017, -0.0004, 0.0000, 0.0000, 0.0000, 0.0000, 0.0000, 0.0000, 0.0000
0, 1.1525, 377, -0.4855, 0.1733, -0.8582, -0.0848, -0.0610, 0.5067, 0.0000, 0.0000, 0.0000, 0.0000, 0.0000, 0.0000, 1.0000, -0.0008, 0.0016, -0.0004, 0.0000, 0.0000, 0.0000, 0.0000, 0.0000, 0.0000, 0.0000
0, 1.1550, 378, -0.4977, 0.1730, -0.8736, 0.1172, -0.4749, -0.1006, 0.0000, 0.0000, 0.0000, 0.0000, 0.0000, 0.0000, 1.0000, -0.0008, 0.0016, -0.0004, 0.0000, 0.0000, 0.0000, 0.0000, 0.0000, 0.0000, 0.0000
0, 1.1575, 379, -0.4897, 0.1770, -0.8698, -0.0990, 0.2398, -1.0636, 0.0000, 0.0000, 0.0000, 0.0000, 0.0000, 0.0000, 1.0000, -0.0008, 0.0015, -0.0004, 0.0000, 0.0000, 0.0000, 0.0000, 0.0000, 0.0000, 0.0000
0, 1.1600, 380, -0.5015, 0.1811, -0.8583, -0.3564, 0.1869, -0.0371, 0.0000, 0.0000, 0.0000, 0.0000, 0.0000, 0.0000, 1.0000, -0.0007, 0.0016, -0.0003, 0.0000, 0.0000, 0.0000, 0.0000, 0.0000, 0.0000, 0.0000
0, 1.1625, 381, -0.5017, 0.1848, -0.8698, 0.1804, -0.3386, -0.1728, 0.0000, 0.0000, 0.0000, 0.0000, 0.0000, 0.0000, 1.0000, -0.0006, 0.0016, -0.0003, 0.0000, 0.0000, 0.0000, 0.0000, 0.0000, 0.0000, 0.0000
0, 1.1650, 382, -0.4938, 0.1768, -0.8774, 0.6438, -0.1675, 0.5622, 0.0000, 0.0000, 0.0000, 0.0000, 0.0000, 0.0000, 1.0000, -0.0006, 0.0015, -0.0004, 0.0000, 0.0000, 0.0000, 0.0000, 0.0000, 0.0000, 0.0000
0, 1.1675, 383, -0.4975, 0.1694, -0.8581, 0.6443, -0.2385, 0.4277, 0.0000, 0.0000, 0.0000, 0.0000, 0.0000, 0.0000, 1.0000, -0.0007, 0.0016, -0.0004, 0.0000, 0.0000, 0.0000, 0.0000, 0.0000, 0.0000, 0.0000
0, 1.1700, 384, -0.4897, 0.1652, -0.8735, 0.7807, -0.5062, 0.3626, 0.0000, 0.0000, 0.0000, 0.0000, 0.0000, 0.0000, 1.0000, -0.0007, 0.0015, -0.0004, 0.0000, 0.0000, 0.0000, 0.0000, 0.0000, 0.0000, 0.0000
0, 1.1725, 385, -0.4894, 0.1812, -0.8544, 0.2526, -0.6005, 0.1033, 0.0000, 0.0000, 0.0000, 0.0000, 0.0000, 0.0000, 1.0000, -0.0006, 0.0015, -0.0004, 0.0000, 0.0000, 0.0000, 0.0000, 0.0000, 0.0000, 0.0000
0, 1.1750, 386, -0.5016, 0.1770, -0.8659, -0.0876, -0.0742, -0.0370, 0.0000, 0.0000, 0.0000, 0.0000, 0.0000, 0.0000, 1.0000, -0.0006, 0.0015, -0.0004, 0.0000, 0.0000, 0.0000, 0.0000, 0.0000, 0.0000, 0.0000
0, 1.1775, 387, -0.5015, 0.1889, -0.8583, 0.1644, 0.5406, -0.2593, 0.0000, 0.0000, 0.0000, 0.0000, 0.0000, 0.0000, 1.0000, -0.0005, 0.0015, -0.0004, 0.0000, 0.0000, 0.0000, 0.0000, 0.0000, 0.0000, 0.0000
0, 1.1825, 388, -0.4855, 0.1614, -0.8657, -0.1615, 0.1067, -0.8554, 0.0000, 0.0000, 0.0000, 0.0000, 0.0000, 0.0000, 1.0000, -0.0006, 0.0015, -0.0004, 0.0000, 0.0000, 0.0000, 0.0000, 0.0000, 0.0000, 0.0000
0, 1.1850, 389, -0.4856, 0.1850, -0.8621, 0.0423, 0.0679, 0.0253, 0.0000, 0.0000, 0.0000, 0.0000, 0.0000, 0.0000, 1.0000, -0.0003, 0.0012, -0.0004, 0.0000, 0.0000, 0.0000, 0.0000, 0.0000, 0.0000, 0.0000
0, 1.1875, 390, -0.4814, 0.1774, -0.8505, 0.5751, -0.2559, -0.1826, 0.0000, 0.0000, 0.0000, 0.0000, 0.0000, 0.0000, 1.0000, -0.0003, 0.0012, -0.0004, 0.0000, 0.0000, 0.0000, 0.0000, 0.0000, 0.0000, 0.0000
0, 1.1900, 391, -0.4815, 0.1694, -0.8581, 0.2331, 0.6290, 0.4855, 0.0000, 0.0000, 0.0000, 0.0000, 0.0000, 0.0000, 1.0000, -0.0003, 0.0011, -0.0004, 0.0000, 0.0000, 0.0000, 0.0000, 0.0000, 0.0000, 0.0000
0, 1.1975, 392, -0.4976, 0.1691, -0.8697, 0.2533, -0.7443, -0.2336, 0.0000, 0.0000, 0.0000, 0.0000, 0.0000, 0.0000, 1.0000, -0.0004, 0.0011, -0.0005, 0.0000, 0.0000, 0.0000, 0.0000, 0.0000, 0.0000, 0.0000
0, 1.2000, 393, -0.5014, 0.1615, -0.8581, 0.1255, -0.8765, 0.1118, 0.0000, 0.0000, 0.0000, 0.0000, 0.0000, 0.0000, 1.0000, -0.0005, 0.0012, -0.0005, 0.0000, 0.0000, 0.0000, 0.0000, 0.0000, 0.0000, 0.0000
0, 1.2025, 394, -0.4933, 0.1892, -0.8430, 0.0487, -0.1221, 0.5733, 0.0000, 0.0000, 0.0000, 0.0000, 0.0000, 0.0000, 1.0000, -0.0003, 0.0012, -0.0005, 0.0000, 0.0000, 0.0000, 0.0000, 0.0000, 0.0000, 0.0000
0, 1.2050, 395, -0.4935, 0.1614, -0.8657, -0.3438, -0.4147, 0.3155, 0.0000, 0.0000, 0.0000, 0.0000, 0.0000, 0.0000, 1.0000, -0.0004, 0.0012, -0.0005, 0.0000, 0.0000, 0.0000, 0.0000, 0.0000, 0.0000, 0.0000
0, 1.2075, 396, -0.5055, 0.1692, -0.8620, 0.1118, -0.2799, -0.4447, 0.0000, 0.0000, 0.0000, 0.0000, 0.0000, 0.0000, 1.0000, -0.0004, 0.0012, -0.0005, 0.0000, 0.0000, 0.0000, 0.0000, 0.0000, 0.0000, 0.0000
0, 1.2100, 397, -0.4975, 0.1654, -0.8619, -0.3519, -0.4527, -1.2477, 0.0000, 0.0000, 0.0000, 0.0000, 0.0000, 0.0000, 1.0000, -0.0004, 0.0012, -0.0005, 0.0000, 0.0000, 0.0000, 0.0000, 0.0000, 0.0000, 0.0000
0, 1.2125, 398, -0.5015, 0.1653, -0.8619, -0.0909, 0.1307, 0.0267, 0.0000, 0.0000, 0.0000, 0.0000, 0.0000, 0.0000, 1.0000, -0.0005, 0.0013, -0.0005, 0.0000, 0.0000, 0.0000, 0.0000, 0.0000, 0.0000, 0.0000
0, 1.2150, 399, -0.5015, 0.1693, -0.8620, -0.0868, -0.1436, -0.1036, 0.0000, 0.0000, 0.0000, 0.0000, 0.0000, 0.0000, 1.0000, -0.0005, 0.0013, -0.0005, 0.0000, 0.0000, 0.0000, 0.0000, 0.0000, 0.0000, 0.0000
0, 1.2175, 400, -0.4936, 0.1612, -0.8734, -0.4088, -0.5593, 0.0479, 0.0000, 0.0000, 0.0000, 0.0000, 0.0000, 0.0000, 1.0000, -0.0006, 0.0013, -0.0005, 0.0000, 0.0000, 0.0000, 0.0000, 0.0000, 0.0000, 0.0000
0, 1.2225, 401, -0.4854, 0.1813, -0.8506, -0.1531, -0.3676, -0.8455, 0.0000, 0.0000, 0.0000, 0.0000, 0.0000, 0.0000, 1.0000, -0.0006, 0.0014, -0.0005, 0.0000, 0.0000, 0.0000, 0.0000, 0.0000, 0.0000, 0.0000
0, 1.2250, 402, -0.4937, 0.1888, -0.8660, -0.7397, -0.4296, 0.3238, 0.0000, 0.0000, 0.0000, 0.0000, 0.0000, 0.0000, 1.0000, -0.0005, 0.0014, -0.0005, 0.0000, 0.0000, 0.0000, 0.0000, 0.0000, 0.0000, 0.0000
0, 1.2275, 403, -0.4895, 0.1733, -0.8582, -0.4791, -0.3618, -0.0909, 0.0000, 0.0000, 0.0000, 0.0000, 0.0000, 0.0000, 1.0000, -0.0005, 0.0014, -0.0005, 0.0000, 0.0000, 0.0000, 0.0000, 0.0000, 0.0000, 0.0000
0, 1.2350, 404, -0.5013, 0.1656, -0.8504, -0.0839, -0.1304, 0.4401, 0.0000, 0.0000, 0.0000, 0.0000, 0.0000, 0.0000, 1.0000, -0.0006, 0.0014, -0.0005, 0.0000, 0.0000, 0.0000, 0.0000, 0.0000, 0.0000, 0.0000
0, 1.2375, 405, -0.5176, 0.1809, -0.8621, 0.1735, -0.0775, -0.5863, 0.0000, 0.0000, 0.0000, 0.0000, 0.0000, 0.0000, 1.0000, -0.0005, 0.0015, -0.0005, 0.0000, 0.0000, 0.0000, 0.0000, 0.0000, 0.0000, 0.0000
0, 1.2400, 406, -0.4977, 0.1730, -0.8736, -0.0873, -0.0725, 0.0309, 0.0000, 0.0000, 0.0000, 0.0000, 0.0000, 0.0000, 1.0000, -0.0006, 0.0015, -0.0005, 0.0000, 0.0000, 0.0000, 0.0000, 0.0000, 0.0000, 0.0000
0, 1.2475, 407, -0.4975, 0.1771, -0.8621, 0.1758, 0.0068, 0.0919, 0.0000, 0.0000, 0.0000, 0.0000, 0.0000, 0.0000, 1.0000, -0.0004, 0.0014, -0.0005, 0.0000, 0.0000, 0.0000, 0.0000, 0.0000, 0.0000, 0.0000
0, 1.2500, 408, -0.5055, 0.1811, -0.8583, 0.7076, -0.1749, 0.1530, 0.0000, 0.0000, 0.0000, 0.0000, 0.0000, 0.0000, 1.0000, -0.0004, 0.0014, -0.0005, 0.0000, 0.0000, 0.0000, 0.0000, 0.0000, 0.0000, 0.0000
0, 1.2525, 409, -0.4854, 0.1656, -0.8543, 0.4467, -0.2443, 0.4998, 0.0000, 0.0000, 0.0000, 0.0000, 0.0000, 0.0000, 1.0000, -0.0004, 0.0014, -0.0005, 0.0000, 0.0000, 0.0000, 0.0000, 0.0000, 0.0000, 0.0000
0, 1.2550, 410, -0.4816, 0.1732, -0.8659, 0.3734, 0.0126, 0.0198, 0.0000, 0.0000, 0.0000, 0.0000, 0.0000, 0.0000, 1.0000, -0.0004, 0.0012, -0.0006, 0.0000, 0.0000, 0.0000, 0.0000, 0.0000, 0.0000, 0.0000
0, 1.2575, 411, -0.4975, 0.1654, -0.8619, -0.1565, -0.0899, -0.5793, 0.0000, 0.0000, 0.0000, 0.0000, 0.0000, 0.0000, 1.0000, -0.0005, 0.0012, -0.0006, 0.0000, 0.0000, 0.0000, 0.0000, 0.0000, 0.0000, 0.0000
0, 1.2600, 412, -0.5054, 0.1772, -0.8544, 0.1731, -0.0791, -0.6543, 0.0000, 0.0000, 0.0000, 0.0000, 0.0000, 0.0000, 1.0000, -0.0004, 0.0013, -0.0005, 0.0000, 0.0000, 0.0000, 0.0000, 0.0000, 0.0000, 0.0000
0, 1.2625, 413, -0.4974, 0.1733, -0.8543, -0.0172, -0.3444, -0.1007, 0.0000, 0.0000, 0.0000, 0.0000, 0.0000, 0.0000, 1.0000, -0.0004, 0.0013, -0.0005, 0.0000, 0.0000, 0.0000, 0.0000, 0.0000, 0.0000, 0.0000
0, 1.2650, 414, -0.4975, 0.1732, -0.8620, -0.1581, 0.1960, 0.0266, 0.0000, 0.0000, 0.0000, 0.0000, 0.0000, 0.0000, 1.0000, -0.0004, 0.0013, -0.0005, 0.0000, 0.0000, 0.0000, 0.0000, 0.0000, 0.0000, 0.0000
0, 1.2675, 415, -0.4938, 0.1689, -0.8812, 0.0462, -0.1337, 0.0975, 0.0000, 0.0000, 0.0000, 0.0000, 0.0000, 0.0000, 1.0000, -0.0005, 0.0012, -0.0005, 0.0000, 0.0000, 0.0000, 0.0000, 0.0000, 0.0000, 0.0000
0, 1.2700, 416, -0.4977, 0.1611, -0.8773, 0.1176, -0.3262, 0.4402, 0.0000, 0.0000, 0.0000, 0.0000, 0.0000, 0.0000, 1.0000, -0.0005, 0.0012, -0.0006, 0.0000, 0.0000, 0.0000, 0.0000, 0.0000, 0.0000, 0.0000
0, 1.2725, 417, -0.5097, 0.1808, -0.8736, -0.2859, -0.0833, -0.1008, 0.0000, 0.0000, 0.0000, 0.0000, 0.0000, 0.0000, 1.0000, -0.0005, 0.0012, -0.0006, 0.0000, 0.0000, 0.0000, 0.0000, 0.0000, 0.0000, 0.0000
0, 1.2775, 418, -0.4854, 0.1773, -0.8544, 0.3161, -0.2427, 0.7745, 0.0000, 0.0000, 0.0000, 0.0000, 0.0000, 0.0000, 1.0000, -0.0004, 0.0012, -0.0006, 0.0000, 0.0000, 0.0000, 0.0000, 0.0000, 0.0000, 0.0000
0, 1.2800, 419, -0.5013, 0.1656, -0.8504, -0.0868, -0.1436, -0.1036, 0.0000, 0.0000, 0.0000, 0.0000, 0.0000, 0.0000, 1.0000, -0.0005, 0.0014, -0.0006, 0.0000, 0.0000, 0.0000, 0.0000, 0.0000, 0.0000, 0.0000
0, 1.2825, 420, -0.5014, 0.1576, -0.8580, 0.5713, -0.1270, -0.4573, 0.0000, 0.0000, 0.0000, 0.0000, 0.0000, 0.0000, 1.0000, -0.0006, 0.0014, -0.0006, 0.0000, 0.0000, 0.0000, 0.0000, 0.0000, 0.0000, 0.0000
0, 1.2850, 421, -0.4894, 0.1655, -0.8543, -0.0928, 0.1952, -0.1107, 0.0000, 0.0000, 0.0000, 0.0000, 0.0000, 0.0000, 1.0000, -0.0006, 0.0014, -0.0006, 0.0000, 0.0000, 0.0000, 0.0000, 0.0000, 0.0000, 0.0000
0, 1.2875, 422, -0.4896, 0.1731, -0.8659, 0.3705, 0.2192, 0.1514, 0.0000, 0.0000, 0.0000, 0.0000, 0.0000, 0.0000, 1.0000, -0.0006, 0.0013, -0.0006, 0.0000, 0.0000, 0.0000, 0.0000, 0.0000, 0.0000, 0.0000
0, 1.2900, 423, -0.4975, 0.1614, -0.8657, 0.1782, -0.1287, 0.0948, 0.0000, 0.0000, 0.0000, 0.0000, 0.0000, 0.0000, 1.0000, -0.0007, 0.0013, -0.0006, 0.0000, 0.0000, 0.0000, 0.0000, 0.0000, 0.0000, 0.0000
0, 1.2975, 424, -0.4895, 0.1732, -0.8620, -0.0187, -0.2783, -0.1701, 0.0000, 0.0000, 0.0000, 0.0000, 0.0000, 0.0000, 1.0000, -0.0007, 0.0014, -0.0006, 0.0000, 0.0000, 0.0000, 0.0000, 0.0000, 0.0000, 0.0000
0, 1.3000, 425, -0.4936, 0.1692, -0.8658, -0.2849, -0.0784, 0.1031, 0.0000, 0.0000, 0.0000, 0.0000, 0.0000, 0.0000, 1.0000, -0.0007, 0.0013, -0.0006, 0.0000, 0.0000, 0.0000, 0.0000, 0.0000, 0.0000, 0.0000
0, 1.3025, 426, -0.4896, 0.1731, -0.8659, -0.0232, -0.0056, -0.1078, 0.0000, 0.0000, 0.0000, 0.0000, 0.0000, 0.0000, 1.0000, -0.0007, 0.0012, -0.0007, 0.0000, 0.0000, 0.0000, 0.0000, 0.0000, 0.0000, 0.0000
0, 1.3050, 427, -0.4975, 0.1771, -0.8621, 0.8372, -0.0344, 0.1474, 0.0000, 0.0000, 0.0000, 0.0000, 0.0000, 0.0000, 1.0000, -0.0007, 0.0012, -0.0007, 0.0000, 0.0000, 0.0000, 0.0000, 0.0000, 0.0000, 0.0000
0, 1.3075, 428, -0.4935, 0.1694, -0.8581, -0.4110, -0.3494, 0.3155, 0.0000, 0.0000, 0.0000, 0.0000, 0.0000, 0.0000, 1.0000, -0.0007, 0.0012, -0.0007, 0.0000, 0.0000, 0.0000, 0.0000, 0.0000, 0.0000, 0.0000
0, 1.3100, 429, -0.5053, 0.1695, -0.8505, 0.4458, -0.3220, 0.0935, 0.0000, 0.0000, 0.0000, 0.0000, 0.0000, 0.0000, 1.0000, -0.0007, 0.0012, -0.0007, 0.0000, 0.0000, 0.0000, 0.0000, 0.0000, 0.0000, 0.0000
0, 1.3125, 430, -0.4895, 0.1693, -0.8620, -0.0217, -0.0717, -0.0384, 0.0000, 0.0000, 0.0000, 0.0000, 0.0000, 0.0000, 1.0000, -0.0007, 0.0011, -0.0007, 0.0000, 0.0000, 0.0000, 0.0000, 0.0000, 0.0000, 0.0000
0, 1.3150, 431, -0.4896, 0.1652, -0.8696, -0.1504, -0.0618, 0.5760, 0.0000, 0.0000, 0.0000, 0.0000, 0.0000, 0.0000, 1.0000, -0.0008, 0.0011, -0.0007, 0.0000, 0.0000, 0.0000, 0.0000, 0.0000, 0.0000, 0.0000
0, 1.3200, 432, -0.4896, 0.1692, -0.8697, -0.3451, -0.2742, 0.5165, 0.0000, 0.0000, 0.0000, 0.0000, 0.0000, 0.0000, 1.0000, -0.0008, 0.0010, -0.0007, 0.0000, 0.0000, 0.0000, 0.0000, 0.0000, 0.0000, 0.0000
0, 1.3225, 433, -0.4815, 0.1694, -0.8581, -0.2149, -0.4973, -0.5014, 0.0000, 0.0000, 0.0000, 0.0000, 0.0000, 0.0000, 1.0000, -0.0008, 0.0010, -0.0007, 0.0000, 0.0000, 0.0000, 0.0000, 0.0000, 0.0000, 0.0000
0, 1.3275, 434, -0.4975, 0.1889, -0.8583, -0.0874, -0.2196, -0.4419, 0.0000, 0.0000, 0.0000, 0.0000, 0.0000, 0.0000, 1.0000, -0.0006, 0.0010, -0.0006, 0.0000, 0.0000, 0.0000, 0.0000, 0.0000, 0.0000, 0.0000
0, 1.3300, 435, -0.4895, 0.1694, -0.8581, 0.1741, 0.1456, 0.2250, 0.0000, 0.0000, 0.0000, 0.0000, 0.0000, 0.0000, 1.0000, -0.0007, 0.0010, -0.0007, 0.0000, 0.0000, 0.0000, 0.0000, 0.0000, 0.0000, 0.0000
0, 1.3325, 436, -0.5054, 0.1694, -0.8543, -0.2873, 0.0572, 0.1002, 0.0000, 0.0000, 0.0000, 0.0000, 0.0000, 0.0000, 1.0000, -0.0007, 0.0011, -0.0007, 0.0000, 0.0000, 0.0000, 0.0000, 0.0000, 0.0000, 0.0000
0, 1.3350, 437, -0.5014, 0.1655, -0.8543, -0.2981, 0.4471, -0.5879, 0.0000, 0.0000, 0.0000, 0.0000, 0.0000, 0.0000, 1.0000, -0.0007, 0.0011, -0.0006, 0.0000, 0.0000, 0.0000, 0.0000, 0.0000, 0.0000, 0.0000
0, 1.3400, 438, -0.4896, 0.1731, -0.8697, 0.2988, 0.5571, 0.2137, 0.0000, 0.0000, 0.0000, 0.0000, 0.0000, 0.0000, 1.0000, -0.0007, 0.0010, -0.0007, 0.0000, 0.0000, 0.0000, 0.0000, 0.0000, 0.0000, 0.0000
0, 1.3425, 439, -0.4775, 0.1694, -0.8581, -0.2147, -0.2031, 0.4444, 0.0000, 0.0000, 0.0000, 0.0000, 0.0000, 0.0000, 1.0000, -0.0007, 0.0009, -0.0007, 0.0000, 0.0000, 0.0000, 0.0000, 0.0000, 0.0000, 0.0000
0, 1.3475, 440, -0.4934, 0.1694, -0.8543, 0.1151, -0.3378, -0.0355, 0.0000, 0.0000, 0.0000, 0.0000, 0.0000, 0.0000, 1.0000, -0.0007, 0.0009, -0.0007, 0.0000, 0.0000, 0.0000, 0.0000, 0.0000, 0.0000, 0.0000
0, 1.3500, 441, -0.4936, 0.1731, -0.8659, -0.0946, 0.1869, -0.4505, 0.0000, 0.0000, 0.0000, 0.0000, 0.0000, 0.0000, 1.0000, -0.0007, 0.0009, -0.0007, 0.0000, 0.0000, 0.0000, 0.0000, 0.0000, 0.0000, 0.0000
0, 1.3525, 442, -0.5015, 0.1614, -0.8619, 0.4942, 0.6257, -0.0638, 0.0000, 0.0000, 0.0000, 0.0000, 0.0000, 0.0000, 1.0000, -0.0007, 0.0009, -0.0007, 0.0000, 0.0000, 0.0000, 0.0000, 0.0000, 0.0000, 0.0000
0, 1.3550, 443, -0.4935, 0.1732, -0.8620, 0.2945, 0.7571, 0.0735, 0.0000, 0.0000, 0.0000, 0.0000, 0.0000, 0.0000, 1.0000, -0.0007, 0.0009, -0.0007, 0.0000, 0.0000, 0.0000, 0.0000, 0.0000, 0.0000, 0.0000
0, 1.3575, 444, -0.5058, 0.1729, -0.8774, 0.3789, -0.4022, -0.3115, 0.0000, 0.0000, 0.0000, 0.0000, 0.0000, 0.0000, 1.0000, -0.0008, 0.0009, -0.0007, 0.0000, 0.0000, 0.0000, 0.0000, 0.0000, 0.0000, 0.0000
0, 1.3600, 445, -0.4936, 0.1652, -0.8696, 0.2414, -0.1394, -0.4503, 0.0000, 0.0000, 0.0000, 0.0000, 0.0000, 0.0000, 1.0000, -0.0008, 0.0009, -0.0007, 0.0000, 0.0000, 0.0000, 0.0000, 0.0000, 0.0000, 0.0000
0, 1.3625, 446, -0.4855, 0.1732, -0.8620, 0.1795, -0.4163, -0.5792, 0.0000, 0.0000, 0.0000, 0.0000, 0.0000, 0.0000, 1.0000, -0.0008, 0.0009, -0.0007, 0.0000, 0.0000, 0.0000, 0.0000, 0.0000, 0.0000, 0.0000
0, 1.3650, 447, -0.5056, 0.1730, -0.8697, 0.4487, -0.5286, -0.0382, 0.0000, 0.0000, 0.0000, 0.0000, 0.0000, 0.0000, 1.0000, -0.0008, 0.0009, -0.0007, 0.0000, 0.0000, 0.0000, 0.0000, 0.0000, 0.0000, 0.0000
0, 1.3675, 448, -0.5015, 0.1733, -0.8582, -0.2149, -0.2775, 0.1739, 0.0000, 0.0000, 0.0000, 0.0000, 0.0000, 0.0000, 1.0000, -0.0008, 0.0009, -0.0007, 0.0000, 0.0000, 0.0000, 0.0000, 0.0000, 0.0000, 0.0000
0, 1.3750, 449, -0.4975, 0.1693, -0.8620, 0.3239, -0.7203, 0.6485, 0.0000, 0.0000, 0.0000, 0.0000, 0.0000, 0.0000, 1.0000, -0.0008, 0.0010, -0.0007, 0.0000, 0.0000, 0.0000, 0.0000, 0.0000, 0.0000, 0.0000
0, 1.3775, 450, -0.4894, 0.1734, -0.8543, 0.5803, -0.3782, 0.3640, 0.0000, 0.0000, 0.0000, 0.0000, 0.0000, 0.0000, 1.0000, -0.0008, 0.0010, -0.0007, 0.0000, 0.0000, 0.0000, 0.0000, 0.0000, 0.0000, 0.0000
0, 1.3800, 451, -0.4898, 0.1689, -0.8812, -0.7447, -0.2329, 0.0477, 0.0000, 0.0000, 0.0000, 0.0000, 0.0000, 0.0000, 1.0000, -0.0008, 0.0009, -0.0008, 0.0000, 0.0000, 0.0000, 0.0000, 0.0000, 0.0000, 0.0000
0, 1.3825, 452, -0.5016, 0.1691, -0.8697, -0.4161, -0.0800, 0.2418, 0.0000, 0.0000, 0.0000, 0.0000, 0.0000, 0.0000, 1.0000, -0.0008, 0.0009, -0.0008, 0.0000, 0.0000, 0.0000, 0.0000, 0.0000, 0.0000, 0.0000
0, 1.3850, 453, -0.4975, 0.1693, -0.8620, -0.0712, -0.8046, 0.5903, 0.0000, 0.0000, 0.0000, 0.0000, 0.0000, 0.0000, 1.0000, -0.0008, 0.0010, -0.0008, 0.0000, 0.0000, 0.0000, 0.0000, 0.0000, 0.0000, 0.0000
0, 1.3900, 454, -0.4936, 0.1810, -0.8621, 0.3791, -0.3278, -0.0411, 0.0000, 0.0000, 0.0000, 0.0000, 0.0000, 0.0000, 1.0000, -0.0007, 0.0009, -0.0007, 0.0000, 0.0000, 0.0000, 0.0000, 0.0000, 0.0000, 0.0000
0, 1.3975, 455, -0.4936, 0.1652, -0.8696, -0.2166, -0.1387, 0.3070, 0.0000, 0.0000, 0.0000, 0.0000, 0.0000, 0.0000, 1.0000, -0.0006, 0.0009, -0.0007, 0.0000, 0.0000, 0.0000, 0.0000, 0.0000, 0.0000, 0.0000
0, 1.4025, 456, -0.5055, 0.1693, -0.8581, 0.3052, 0.2200, 0.2888, 0.0000, 0.0000, 0.0000, 0.0000, 0.0000, 0.0000, 1.0000, -0.0006, 0.0009, -0.0007, 0.0000, 0.0000, 0.0000, 0.0000, 0.0000, 0.0000, 0.0000
0, 1.4050, 457, -0.4936, 0.1692, -0.8658, -0.2158, -0.2081, 0.2405, 0.0000, 0.0000, 0.0000, 0.0000, 0.0000, 0.0000, 1.0000, -0.0006, 0.0009, -0.0007, 0.0000, 0.0000, 0.0000, 0.0000, 0.0000, 0.0000, 0.0000
0, 1.4075, 458, -0.5014, 0.1812, -0.8544, -0.2956, 0.4587, -0.1122, 0.0000, 0.0000, 0.0000, 0.0000, 0.0000, 0.0000, 1.0000, -0.0006, 0.0010, -0.0006, 0.0000, 0.0000, 0.0000, 0.0000, 0.0000, 0.0000, 0.0000
0, 1.4100, 459, -0.4816, 0.1732, -0.8659, -0.2238, 0.2679, 0.2985, 0.0000, 0.0000, 0.0000, 0.0000, 0.0000, 0.0000, 1.0000, -0.0006, 0.0009, -0.0007, 0.0000, 0.0000, 0.0000, 0.0000, 0.0000, 0.0000, 0.0000
0, 1.4125, 460, -0.4934, 0.1655, -0.8581, -0.4195, -0.1693, -0.6403, 0.0000, 0.0000, 0.0000, 0.0000, 0.0000, 0.0000, 1.0000, -0.0006, 0.0009, -0.0007, 0.0000, 0.0000, 0.0000, 0.0000, 0.0000, 0.0000, 0.0000
0, 1.4150, 461, -0.4814, 0.1734, -0.8543, -0.3596, 0.1720, -0.6488, 0.0000, 0.0000, 0.0000, 0.0000, 0.0000, 0.0000, 1.0000, -0.0006, 0.0008, -0.0006, 0.0000, 0.0000, 0.0000, 0.0000, 0.0000, 0.0000, 0.0000
0, 1.4175, 462, -0.4975, 0.1654, -0.8619, 0.3704, 0.0721, -0.3215, 0.0000, 0.0000, 0.0000, 0.0000, 0.0000, 0.0000, 1.0000, -0.0006, 0.0008, -0.0007, 0.0000, 0.0000, 0.0000, 0.0000, 0.0000, 0.0000, 0.0000
0, 1.4200, 463, -0.4974, 0.1773, -0.8544, 0.1752, -0.0692, -0.2465, 0.0000, 0.0000, 0.0000, 0.0000, 0.0000, 0.0000, 1.0000, -0.0006, 0.0009, -0.0006, 0.0000, 0.0000, 0.0000, 0.0000, 0.0000, 0.0000, 0.0000
0, 1.4250, 464, -0.4974, 0.1615, -0.8581, 0.4333, 0.5737, 0.6866, 0.0000, 0.0000, 0.0000, 0.0000, 0.0000, 0.0000, 1.0000, -0.0006, 0.0009, -0.0006, 0.0000, 0.0000, 0.0000, 0.0000, 0.0000, 0.0000, 0.0000
0, 1.4275, 465, -0.5057, 0.1729, -0.8735, -0.1534, -0.0023, 0.2348, 0.0000, 0.0000, 0.0000, 0.0000, 0.0000, 0.0000, 1.0000, -0.0006, 0.0009, -0.0006, 0.0000, 0.0000, 0.0000, 0.0000, 0.0000, 0.0000, 0.0000
0, 1.4300, 466, -0.4977, 0.1690, -0.8774, 0.5036, 0.0093, -0.3228, 0.0000, 0.0000, 0.0000, 0.0000, 0.0000, 0.0000, 1.0000, -0.0006, 0.0009, -0.0006, 0.0000, 0.0000, 0.0000, 0.0000, 0.0000, 0.0000, 0.0000
0, 1.4350, 467, -0.4975, 0.1575, -0.8657, -0.6172, 0.0447, 0.1072, 0.0000, 0.0000, 0.0000, 0.0000, 0.0000, 0.0000, 1.0000, -0.0007, 0.0009, -0.0007, 0.0000, 0.0000, 0.0000, 0.0000, 0.0000, 0.0000, 0.0000
0, 1.4375, 468, -0.4894, 0.1695, -0.8543, -0.4105, -0.4205, 0.1809, 0.0000, 0.0000, 0.0000, 0.0000, 0.0000, 0.0000, 1.0000, -0.0007, 0.0009, -0.0007, 0.0000, 0.0000, 0.0000, 0.0000, 0.0000, 0.0000, 0.0000
0, 1.4475, 469, -0.4895, 0.1732, -0.8620, -0.4303, 0.5876, -0.1802, 0.0000, 0.0000, 0.0000, 0.0000, 0.0000, 0.0000, 1.0000, -0.0007, 0.0009, -0.0007, 0.0000, 0.0000, 0.0000, 0.0000, 0.0000, 0.0000, 0.0000
0, 1.4500, 470, -0.4974, 0.1773, -0.8544, 0.7067, -0.2526, -0.2533, 0.0000, 0.0000, 0.0000, 0.0000, 0.0000, 0.0000, 1.0000, -0.0007, 0.0010, -0.0007, 0.0000, 0.0000, 0.0000, 0.0000, 0.0000, 0.0000, 0.0000
0, 1.4525, 471, -0.4936, 0.1652, -0.8696, -0.3506, -0.2263, -0.3005, 0.0000, 0.0000, 0.0000, 0.0000, 0.0000, 0.0000, 1.0000, -0.0008, 0.0009, -0.0007, 0.0000, 0.0000, 0.0000, 0.0000, 0.0000, 0.0000, 0.0000
0, 1.4550, 472, -0.4935, 0.1771, -0.8621, 0.5715, -0.0526, -0.1869, 0.0000, 0.0000, 0.0000, 0.0000, 0.0000, 0.0000, 1.0000, -0.0007, 0.0009, -0.0007, 0.0000, 0.0000, 0.0000, 0.0000, 0.0000, 0.0000, 0.0000
0, 1.4575, 473, -0.4935, 0.1693, -0.8620, 0.2351, 0.3448, -0.0525, 0.0000, 0.0000, 0.0000, 0.0000, 0.0000, 0.0000, 1.0000, -0.0008, 0.0009, -0.0007, 0.0000, 0.0000, 0.0000, 0.0000, 0.0000, 0.0000, 0.0000
0, 1.4675, 474, -0.4815, 0.1772, -0.8621, -0.0978, 0.5389, 0.0861, 0.0000, 0.0000, 0.0000, 0.0000, 0.0000, 0.0000, 1.0000, -0.0008, 0.0008, -0.0007, 0.0000, 0.0000, 0.0000, 0.0000, 0.0000, 0.0000, 0.0000
0, 1.4700, 475, -0.4856, 0.1811, -0.8621, 0.6370, 0.0209, -0.0538, 0.0000, 0.0000, 0.0000, 0.0000, 0.0000, 0.0000, 1.0000, -0.0008, 0.0007, -0.0007, 0.0000, 0.0000, 0.0000, 0.0000, 0.0000, 0.0000, 0.0000
0, 1.4725, 476, -0.4817, 0.1848, -0.8698, 0.7831, -1.0086, -0.7828, 0.0000, 0.0000, 0.0000, 0.0000, 0.0000, 0.0000, 1.0000, -0.0008, 0.0007, -0.0007, 0.0000, 0.0000, 0.0000, 0.0000, 0.0000, 0.0000, 0.0000
0, 1.4750, 477, -0.5018, 0.1768, -0.8774, -0.2810, -0.4271, -0.2976, 0.0000, 0.0000, 0.0000, 0.0000, 0.0000, 0.0000, 1.0000, -0.0008, 0.0007, -0.0007, 0.0000, 0.0000, 0.0000, 0.0000, 0.0000, 0.0000, 0.0000
0, 1.4825, 478, -0.4814, 0.1695, -0.8543, 0.2419, -0.2105, -0.5848, 0.0000, 0.0000, 0.0000, 0.0000, 0.0000, 0.0000, 1.0000, -0.0007, 0.0006, -0.0006, 0.0000, 0.0000, 0.0000, 0.0000, 0.0000, 0.0000, 0.0000
0, 1.4850, 479, -0.5055, 0.1692, -0.8620, -0.4132, -0.5064, -0.5652, 0.0000, 0.0000, 0.0000, 0.0000, 0.0000, 0.0000, 1.0000, -0.0007, 0.0007, -0.0006, 0.0000, 0.0000, 0.0000, 0.0000, 0.0000, 0.0000, 0.0000
0, 1.4875, 480, -0.4895, 0.1693, -0.8620, 0.2552, -0.6616, 0.3766, 0.0000, 0.0000, 0.0000, 0.0000, 0.0000, 0.0000, 1.0000, -0.0007, 0.0007, -0.0006, 0.0000, 0.0000, 0.0000, 0.0000, 0.0000, 0.0000, 0.0000
0, 1.4900, 481, -0.4936, 0.1534, -0.8733, 0.2457, -0.3394, -0.3101, 0.0000, 0.0000, 0.0000, 0.0000, 0.0000, 0.0000, 1.0000, -0.0008, 0.0007, -0.0007, 0.0000, 0.0000, 0.0000, 0.0000, 0.0000, 0.0000, 0.0000
0, 1.4925, 482, -0.4858, 0.1650, -0.8812, -0.3511, -0.1552, -0.1659, 0.0000, 0.0000, 0.0000, 0.0000, 0.0000, 0.0000, 1.0000, -0.0009, 0.0006, -0.0007, 0.0000, 0.0000, 0.0000, 0.0000, 0.0000, 0.0000, 0.0000
0, 1.4950, 483, -0.4897, 0.1691, -0.8735, 0.4535, -0.7996, -0.0325, 0.0000, 0.0000, 0.0000, 0.0000, 0.0000, 0.0000, 1.0000, -0.0009, 0.0006, -0.0008, 0.0000, 0.0000, 0.0000, 0.0000, 0.0000, 0.0000, 0.0000
0, 1.4975, 484, -0.4935, 0.1732, -0.8620, 0.7151, -0.5070, 0.4320, 0.0000, 0.0000, 0.0000, 0.0000, 0.0000, 0.0000, 1.0000, -0.0009, 0.0006, -0.0008, 0.0000, 0.0000, 0.0000, 0.0000, 0.0000, 0.0000, 0.0000
0, 1.5000, 485, -0.4854, 0.1773, -0.8544, 0.2431, 0.0886, 0.5648, 0.0000, 0.0000, 0.0000, 0.0000, 0.0000, 0.0000, 1.0000, -0.0008, 0.0005, -0.0008, 0.0000, 0.0000, 0.0000, 0.0000, 0.0000, 0.0000, 0.0000
0, 1.5025, 486, -0.4855, 0.1811, -0.8583, -0.4273, 0.3083, -0.5143, 0.0000, 0.0000, 0.0000, 0.0000, 0.0000, 0.0000, 1.0000, -0.0008, 0.0005, -0.0007, 0.0000, 0.0000, 0.0000, 0.0000, 0.0000, 0.0000, 0.0000
0, 1.5050, 487, -0.4976, 0.1731, -0.8659, -0.2904, 0.1894, -0.0385, 0.0000, 0.0000, 0.0000, 0.0000, 0.0000, 0.0000, 1.0000, -0.0008, 0.0005, -0.0007, 0.0000, 0.0000, 0.0000, 0.0000, 0.0000, 0.0000, 0.0000
0, 1.5075, 488, -0.5096, 0.1809, -0.8659, -0.1576, 0.1249, -0.1079, 0.0000, 0.0000, 0.0000, 0.0000, 0.0000, 0.0000, 1.0000, -0.0007, 0.0006, -0.0007, 0.0000, 0.0000, 0.0000, 0.0000, 0.0000, 0.0000, 0.0000
0, 1.5100, 489, -0.4937, 0.1769, -0.8736, -0.3523, -0.0875, -0.1674, 0.0000, 0.0000, 0.0000, 0.0000, 0.0000, 0.0000, 1.0000, -0.0007, 0.0005, -0.0006, 0.0000, 0.0000, 0.0000, 0.0000, 0.0000, 0.0000, 0.0000
0, 1.5150, 490, -0.5014, 0.1654, -0.8581, -0.4856, 0.0480, 0.0365, 0.0000, 0.0000, 0.0000, 0.0000, 0.0000, 0.0000, 1.0000, -0.0008, 0.0006, -0.0007, 0.0000, 0.0000, 0.0000, 0.0000, 0.0000, 0.0000, 0.0000
0, 1.5175, 491, -0.4774, 0.1655, -0.8581, -0.1547, 0.1382, 0.4358, 0.0000, 0.0000, 0.0000, 0.0000, 0.0000, 0.0000, 1.0000, -0.0008, 0.0005, -0.0007, 0.0000, 0.0000, 0.0000, 0.0000, 0.0000, 0.0000, 0.0000
0, 1.5200, 492, -0.5016, 0.1535, -0.8695, 0.4446, -0.2542, 0.0920, 0.0000, 0.0000, 0.0000, 0.0000, 0.0000, 0.0000, 1.0000, -0.0009, 0.0005, -0.0008, 0.0000, 0.0000, 0.0000, 0.0000, 0.0000, 0.0000, 0.0000
0, 1.5225, 493, -0.4894, 0.1616, -0.8581, 0.1808, -0.3369, -0.1049, 0.0000, 0.0000, 0.0000, 0.0000, 0.0000, 0.0000, 1.0000, -0.0010, 0.0005, -0.0008, 0.0000, 0.0000, 0.0000, 0.0000, 0.0000, 0.0000, 0.0000
0, 1.5250, 494, -0.4895, 0.1614, -0.8657, 0.2509, -0.4617, 0.2364, 0.0000, 0.0000, 0.0000, 0.0000, 0.0000, 0.0000, 1.0000, -0.0010, 0.0005, -0.0009, 0.0000, 0.0000, 0.0000, 0.0000, 0.0000, 0.0000, 0.0000
0, 1.5325, 495, -0.5018, 0.1886, -0.8737, 0.1084, -0.0023, -0.1785, 0.0000, 0.0000, 0.0000, 0.0000, 0.0000, 0.0000, 1.0000, -0.0010, 0.0006, -0.0009, 0.0000, 0.0000, 0.0000, 0.0000, 0.0000, 0.0000, 0.0000
0, 1.5350, 496, -0.4974, 0.1773, -0.8505, 0.6268, 0.4869, -0.4035, 0.0000, 0.0000, 0.0000, 0.0000, 0.0000, 0.0000, 1.0000, -0.0010, 0.0006, -0.0009, 0.0000, 0.0000, 0.0000, 0.0000, 0.0000, 0.0000, 0.0000
0, 1.5400, 497, -0.4975, 0.1575, -0.8657, 0.2449, -0.1229, 0.2293, 0.0000, 0.0000, 0.0000, 0.0000, 0.0000, 0.0000, 1.0000, -0.0011, 0.0005, -0.0009, 0.0000, 0.0000, 0.0000, 0.0000, 0.0000, 0.0000, 0.0000
0, 1.5425, 498, -0.5054, 0.1655, -0.8543, 0.4416, -0.0477, 0.2237, 0.0000, 0.0000, 0.0000, 0.0000, 0.0000, 0.0000, 1.0000, -0.0011, 0.0006, -0.0010, 0.0000, 0.0000, 0.0000, 0.0000, 0.0000, 0.0000, 0.0000
0, 1.5450, 499, -0.4935, 0.1811, -0.8583, -0.0827, -0.4179, -0.2338, 0.0000, 0.0000, 0.0000, 0.0000, 0.0000, 0.0000, 1.0000, -0.0010, 0.0006, -0.0009, 0.0000, 0.0000, 0.0000, 0.0000, 0.0000, 0.0000, 0.0000
0, 1.5475, 500, -0.4896, 0.1692, -0.8697, 0.9013, 0.0325, 0.0086, 0.0000, 0.0000, 0.0000, 0.0000, 0.0000, 0.0000, 1.0000, -0.0011, 0.0006, -0.0010, 0.0000, 0.0000, 0.0000, 0.0000, 0.0000, 0.0000, 0.0000
0, 1.5500, 501, -0.4897, 0.1809, -0.8698, 0.5047, 0.0143, -0.1189, 0.0000, 0.0000, 0.0000, 0.0000, 0.0000, 0.0000, 1.0000, -0.0010, 0.0005, -0.0009, 0.0000, 0.0000, 0.0000, 0.0000, 0.0000, 0.0000, 0.0000
0, 1.5525, 502, -0.4975, 0.1772, -0.8582, -0.0183, -0.1295, 0.3708, 0.0000, 0.0000, 0.0000, 0.0000, 0.0000, 0.0000, 1.0000, -0.0010, 0.0005, -0.0009, 0.0000, 0.0000, 0.0000, 0.0000, 0.0000, 0.0000, 0.0000
0, 1.5550, 503, -0.4977, 0.1730, -0.8736, -0.2224, 0.0547, -0.1050, 0.0000, 0.0000, 0.0000, 0.0000, 0.0000, 0.0000, 1.0000, -0.0010, 0.0005, -0.0009, 0.0000, 0.0000, 0.0000, 0.0000, 0.0000, 0.0000, 0.0000
0, 1.5575, 504, -0.4815, 0.1654, -0.8619, -0.0201, -0.1378, 0.0310, 0.0000, 0.0000, 0.0000, 0.0000, 0.0000, 0.0000, 1.0000, -0.0011, 0.0003, -0.0010, 0.0000, 0.0000, 0.0000, 0.0000, 0.0000, 0.0000, 0.0000
0, 1.5600, 505, -0.4855, 0.1771, -0.8621, -0.1560, 0.0588, -0.0385, 0.0000, 0.0000, 0.0000, 0.0000, 0.0000, 0.0000, 1.0000, -0.0010, 0.0002, -0.0009, 0.0000, 0.0000, 0.0000, 0.0000, 0.0000, 0.0000, 0.0000
0, 1.5625, 506, -0.5096, 0.1849, -0.8621, -0.6145, -0.2362, -0.2949, 0.0000, 0.0000, 0.0000, 0.0000, 0.0000, 0.0000, 1.0000, -0.0010, 0.0002, -0.0008, 0.0000, 0.0000, 0.0000, 0.0000, 0.0000, 0.0000, 0.0000
0, 1.5650, 507, -0.5055, 0.1613, -0.8657, 0.1137, -0.3444, -0.3074, 0.0000, 0.0000, 0.0000, 0.0000, 0.0000, 0.0000, 1.0000, -0.0010, 0.0003, -0.0009, 0.0000, 0.0000, 0.0000, 0.0000, 0.0000, 0.0000, 0.0000
0, 1.5700, 508, -0.4936, 0.1810, -0.8621, 0.5167, -0.6633, -0.1047, 0.0000, 0.0000, 0.0000, 0.0000, 0.0000, 0.0000, 1.0000, -0.0010, 0.0003, -0.0008, 0.0000, 0.0000, 0.0000, 0.0000, 0.0000, 0.0000, 0.0000
0, 1.5725, 509, -0.4895, 0.1850, -0.8583, -0.1545, -0.1544, -0.4420, 0.0000, 0.0000, 0.0000, 0.0000, 0.0000, 0.0000, 1.0000, -0.0009, 0.0003, -0.0008, 0.0000, 0.0000, 0.0000, 0.0000, 0.0000, 0.0000, 0.0000
0, 1.5750, 510, -0.4975, 0.1732, -0.8620, -0.4162, -0.2271, -0.2311, 0.0000, 0.0000, 0.0000, 0.0000, 0.0000, 0.0000, 1.0000, -0.0009, 0.0003, -0.0007, 0.0000, 0.0000, 0.0000, 0.0000, 0.0000, 0.0000, 0.0000
0, 1.5775, 511, -0.4937, 0.1652, -0.8735, 0.0433, 0.0729, 0.2292, 0.0000, 0.0000, 0.0000, 0.0000, 0.0000, 0.0000, 1.0000, -0.0010, 0.0002, -0.0008, 0.0000, 0.0000, 0.0000, 0.0000, 0.0000, 0.0000, 0.0000
0, 1.5800, 512, -0.5015, 0.1771, -0.8621, 0.3674, 0.3514, 0.0127, 0.0000, 0.0000, 0.0000, 0.0000, 0.0000, 0.0000, 1.0000, -0.0009, 0.0003, -0.0008, 0.0000, 0.0000, 0.0000, 0.0000, 0.0000, 0.0000, 0.0000
0, 1.5825, 513, -0.5014, 0.1812, -0.8506, 0.3069, 0.0812, 0.1557, 0.0000, 0.0000, 0.0000, 0.0000, 0.0000, 0.0000, 1.0000, -0.0008, 0.0003, -0.0007, 0.0000, 0.0000, 0.0000, 0.0000, 0.0000, 0.0000, 0.0000
0, 1.5850, 514, -0.4977, 0.1887, -0.8699, 0.3764, -0.2667, -0.3143, 0.0000, 0.0000, 0.0000, 0.0000, 0.0000, 0.0000, 1.0000, -0.0008, 0.0003, -0.0007, 0.0000, 0.0000, 0.0000, 0.0000, 0.0000, 0.0000, 0.0000
0, 1.5875, 515, -0.5015, 0.1889, -0.8583, 0.1874, -0.4526, 0.7135, 0.0000, 0.0000, 0.0000, 0.0000, 0.0000, 0.0000, 1.0000, -0.0007, 0.0003, -0.0006, 0.0000, 0.0000, 0.0000, 0.0000, 0.0000, 0.0000, 0.0000
0, 1.5900, 516, -0.4734, 0.1813, -0.8506, 0.6418, -0.2501, -0.0481, 0.0000, 0.0000, 0.0000, 0.0000, 0.0000, 0.0000, 1.0000, -0.0007, 0.0003, -0.0006, 0.0000, 0.0000, 0.0000, 0.0000, 0.0000, 0.0000, 0.0000
0, 1.5925, 517, -0.4895, 0.1733, -0.8582, 0.6352, 0.0127, -0.3936, 0.0000, 0.0000, 0.0000, 0.0000, 0.0000, 0.0000, 1.0000, -0.0007, 0.0003, -0.0006, 0.0000, 0.0000, 0.0000, 0.0000, 0.0000, 0.0000, 0.0000
0, 1.5950, 518, -0.4975, 0.1890, -0.8545, 0.0518, -0.6212, -0.4362, 0.0000, 0.0000, 0.0000, 0.0000, 0.0000, 0.0000, 1.0000, -0.0006, 0.0003, -0.0005, 0.0000, 0.0000, 0.0000, 0.0000, 0.0000, 0.0000, 0.0000
0, 1.5975, 519, -0.5017, 0.1809, -0.8698, -0.2741, -0.8352, -0.3570, 0.0000, 0.0000, 0.0000, 0.0000, 0.0000, 0.0000, 1.0000, -0.0006, 0.0003, -0.0005, 0.0000, 0.0000, 0.0000, 0.0000, 0.0000, 0.0000, 0.0000
0, 1.6000, 520, -0.4936, 0.1849, -0.8621, 0.0396, 0.3489, 0.4274, 0.0000, 0.0000, 0.0000, 0.0000, 0.0000, 0.0000, 1.0000, -0.0005, 0.0003, -0.0005, 0.0000, 0.0000, 0.0000, 0.0000, 0.0000, 0.0000, 0.0000
0, 1.6025, 521, -0.4895, 0.1733, -0.8582, 0.2465, -0.1890, 0.2987, 0.0000, 0.0000, 0.0000, 0.0000, 0.0000, 0.0000, 1.0000, -0.0005, 0.0003, -0.0005, 0.0000, 0.0000, 0.0000, 0.0000, 0.0000, 0.0000, 0.0000
0, 1.6075, 522, -0.4935, 0.1771, -0.8621, -0.0849, -0.2081, 0.0338, 0.0000, 0.0000, 0.0000, 0.0000, 0.0000, 0.0000, 1.0000, -0.0004, 0.0003, -0.0004, 0.0000, 0.0000, 0.0000, 0.0000, 0.0000, 0.0000, 0.0000
0, 1.6100, 523, -0.4975, 0.1771, -0.8621, 0.1101, -0.1411, -0.3116, 0.0000, 0.0000, 0.0000, 0.0000, 0.0000, 0.0000, 1.0000, -0.0004, 0.0004, -0.0003, 0.0000, 0.0000, 0.0000, 0.0000, 0.0000, 0.0000, 0.0000
0, 1.6125, 524, -0.4974, 0.1734, -0.8505, 0.0331, 0.5389, -0.1206, 0.0000, 0.0000, 0.0000, 0.0000, 0.0000, 0.0000, 1.0000, -0.0004, 0.0004, -0.0003, 0.0000, 0.0000, 0.0000, 0.0000, 0.0000, 0.0000, 0.0000
0, 1.6150, 525, -0.5014, 0.1891, -0.8468, -0.1562, 0.1315, 0.1640, 0.0000, 0.0000, 0.0000, 0.0000, 0.0000, 0.0000, 1.0000, -0.0002, 0.0005, -0.0001, 0.0000, 0.0000, 0.0000, 0.0000, 0.0000, 0.0000, 0.0000
0, 1.6175, 526, -0.5136, 0.1730, -0.8697, 0.3878, -0.8004, 0.0369, 0.0000, 0.0000, 0.0000, 0.0000, 0.0000, 0.0000, 1.0000, -0.0002, 0.0006, -0.0001, 0.0000, 0.0000, 0.0000, 0.0000, 0.0000, 0.0000, 0.0000
0, 1.6200, 527, -0.5015, 0.1693, -0.8620, 0.9092, -0.3707, 0.1531, 0.0000, 0.0000, 0.0000, 0.0000, 0.0000, 0.0000, 1.0000, -0.0002, 0.0006, -0.0001, 0.0000, 0.0000, 0.0000, 0.0000, 0.0000, 0.0000, 0.0000
0, 1.6225, 528, -0.4856, 0.1731, -0.8697, 0.5109, -0.2501, 0.1586, 0.0000, 0.0000, 0.0000, 0.0000, 0.0000, 0.0000, 1.0000, -0.0003, 0.0005, -0.0002, 0.0000, 0.0000, 0.0000, 0.0000, 0.0000, 0.0000, 0.0000
0, 1.6250, 529, -0.4975, 0.1733, -0.8582, 0.0454, -0.0643, 0.1641, 0.0000, 0.0000, 0.0000, 0.0000, 0.0000, 0.0000, 1.0000, -0.0002, 0.0006, -0.0001, 0.0000, 0.0000, 0.0000, 0.0000, 0.0000, 0.0000, 0.0000
0, 1.6275, 530, -0.4974, 0.1733, -0.8543, 0.3100, -0.0510, 0.2944, 0.0000, 0.0000, 0.0000, 0.0000, 0.0000, 0.0000, 1.0000, -0.0002, 0.0006, -0.0001, 0.0000, 0.0000, 0.0000, 0.0000, 0.0000, 0.0000, 0.0000
0, 1.6325, 531, -0.4936, 0.1652, -0.8696, 0.0438, 0.0018, 0.0947, 0.0000, 0.0000, 0.0000, 0.0000, 0.0000, 0.0000, 1.0000, -0.0004, 0.0005, -0.0002, 0.0000, 0.0000, 0.0000, 0.0000, 0.0000, 0.0000, 0.0000
0, 1.6350, 532, -0.4855, 0.1772, -0.8582, -0.3481, -0.2147, 0.1753, 0.0000, 0.0000, 0.0000, 0.0000, 0.0000, 0.0000, 1.0000, -0.0003, 0.0005, -0.0002, 0.0000, 0.0000, 0.0000, 0.0000, 0.0000, 0.0000, 0.0000
0, 1.6375, 533, -0.4857, 0.1770, -0.8698, -0.3511, -0.1552, -0.1659, 0.0000, 0.0000, 0.0000, 0.0000, 0.0000, 0.0000, 1.0000, -0.0003, 0.0004, -0.0003, 0.0000, 0.0000, 0.0000, 0.0000, 0.0000, 0.0000, 0.0000
0, 1.6400, 534, -0.4936, 0.1691, -0.8697, 0.5770, -0.3203, -0.0452, 0.0000, 0.0000, 0.0000, 0.0000, 0.0000, 0.0000, 1.0000, -0.0004, 0.0004, -0.0003, 0.0000, 0.0000, 0.0000, 0.0000, 0.0000, 0.0000, 0.0000
0, 1.6425, 535, -0.4935, 0.1732, -0.8620, 0.1731, -0.0791, -0.6543, 0.0000, 0.0000, 0.0000, 0.0000, 0.0000, 0.0000, 1.0000, -0.0004, 0.0004, -0.0003, 0.0000, 0.0000, 0.0000, 0.0000, 0.0000, 0.0000, 0.0000
0, 1.6450, 536, -0.4936, 0.1770, -0.8659, -0.1507, -0.2833, -0.1673, 0.0000, 0.0000, 0.0000, 0.0000, 0.0000, 0.0000, 1.0000, -0.0003, 0.0004, -0.0003, 0.0000, 0.0000, 0.0000, 0.0000, 0.0000, 0.0000, 0.0000
0, 1.6500, 537, -0.4977, 0.1770, -0.8697, -0.0861, -0.2874, -0.4405, 0.0000, 0.0000, 0.0000, 0.0000, 0.0000, 0.0000, 1.0000, -0.0003, 0.0004, -0.0002, 0.0000, 0.0000, 0.0000, 0.0000, 0.0000, 0.0000, 0.0000
0, 1.6525, 538, -0.4974, 0.1773, -0.8544, 0.5171, -0.6616, -0.0367, 0.0000, 0.0000, 0.0000, 0.0000, 0.0000, 0.0000, 1.0000, -0.0003, 0.0004, -0.0002, 0.0000, 0.0000, 0.0000, 0.0000, 0.0000, 0.0000, 0.0000
0, 1.6550, 539, -0.4934, 0.1616, -0.8542, 0.1711, 0.2051, -0.1162, 0.0000, 0.0000, 0.0000, 0.0000, 0.0000, 0.0000, 1.0000, -0.0004, 0.0004, -0.0003, 0.0000, 0.0000, 0.0000, 0.0000, 0.0000, 0.0000, 0.0000
0, 1.6575, 540, -0.4937, 0.1651, -0.8773, -0.6762, -0.4387, -0.1533, 0.0000, 0.0000, 0.0000, 0.0000, 0.0000, 0.0000, 1.0000, -0.0004, 0.0004, -0.0003, 0.0000, 0.0000, 0.0000, 0.0000, 0.0000, 0.0000, 0.0000
0, 1.6600, 541, -0.5016, 0.1613, -0.8696, 0.1160, -0.4072, -0.1020, 0.0000, 0.0000, 0.0000, 0.0000, 0.0000, 0.0000, 1.0000, -0.0005, 0.0004, -0.0003, 0.0000, 0.0000, 0.0000, 0.0000, 0.0000, 0.0000, 0.0000
0, 1.6625, 542, -0.4897, 0.1769, -0.8736, 0.3098, -0.2725, -0.4489, 0.0000, 0.0000, 0.0000, 0.0000, 0.0000, 0.0000, 1.0000, -0.0005, 0.0004, -0.0003, 0.0000, 0.0000, 0.0000, 0.0000, 0.0000, 0.0000, 0.0000
0, 1.6650, 543, -0.4855, 0.1771, -0.8621, 0.4552, -0.9384, -0.1656, 0.0000, 0.0000, 0.0000, 0.0000, 0.0000, 0.0000, 1.0000, -0.0005, 0.0004, -0.0004, 0.0000, 0.0000, 0.0000, 0.0000, 0.0000, 0.0000, 0.0000
0, 1.6750, 544, -0.4933, 0.1696, -0.8466, 0.6448, -0.3096, 0.2932, 0.0000, 0.0000, 0.0000, 0.0000, 0.0000, 0.0000, 1.0000, -0.0005, 0.0005, -0.0004, 0.0000, 0.0000, 0.0000, 0.0000, 0.0000, 0.0000, 0.0000
0, 1.6775, 545, -0.4974, 0.1734, -0.8505, 0.3798, -0.5443, -0.5805, 0.0000, 0.0000, 0.0000, 0.0000, 0.0000, 0.0000, 1.0000, -0.0005, 0.0005, -0.0004, 0.0000, 0.0000, 0.0000, 0.0000, 0.0000, 0.0000, 0.0000
0, 1.6800, 546, -0.5011, 0.1659, -0.8350, 0.3743, -0.2766, -0.7221, 0.0000, 0.0000, 0.0000, 0.0000, 0.0000, 0.0000, 1.0000, -0.0005, 0.0006, -0.0004, 0.0000, 0.0000, 0.0000, 0.0000, 0.0000, 0.0000, 0.0000
0, 1.6825, 547, -0.5013, 0.1696, -0.8466, -0.0231, -0.2254, -0.7832, 0.0000, 0.0000, 0.0000, 0.0000, 0.0000, 0.0000, 1.0000, -0.0005, 0.0007, -0.0003, 0.0000, 0.0000, 0.0000, 0.0000, 0.0000, 0.0000, 0.0000
0, 1.6850, 548, -0.4934, 0.1655, -0.8581, -0.3482, -0.3618, -0.2976, 0.0000, 0.0000, 0.0000, 0.0000, 0.0000, 0.0000, 1.0000, -0.0005, 0.0007, -0.0003, 0.0000, 0.0000, 0.0000, 0.0000, 0.0000, 0.0000, 0.0000
0, 1.6875, 549, -0.5055, 0.1772, -0.8582, 0.4409, -0.0510, 0.0878, 0.0000, 0.0000, 0.0000, 0.0000, 0.0000, 0.0000, 1.0000, -0.0005, 0.0007, -0.0003, 0.0000, 0.0000, 0.0000, 0.0000, 0.0000, 0.0000, 0.0000
0, 1.6950, 550, -0.4936, 0.1652, -0.8696, -0.1429, -0.6138, 0.1796, 0.0000, 0.0000, 0.0000, 0.0000, 0.0000, 0.0000, 1.0000, -0.0006, 0.0007, -0.0004, 0.0000, 0.0000, 0.0000, 0.0000, 0.0000, 0.0000, 0.0000
0, 1.6975, 551, -0.4976, 0.1731, -0.8659, -0.1546, -0.3015, -0.9149, 0.0000, 0.0000, 0.0000, 0.0000, 0.0000, 0.0000, 1.0000, -0.0006, 0.0007, -0.0003, 0.0000, 0.0000, 0.0000, 0.0000, 0.0000, 0.0000, 0.0000
0, 1.7025, 552, -0.4936, 0.1770, -0.8659, 0.5110, -0.1030, 0.6315, 0.0000, 0.0000, 0.0000, 0.0000, 0.0000, 0.0000, 1.0000, -0.0006, 0.0007, -0.0004, 0.0000, 0.0000, 0.0000, 0.0000, 0.0000, 0.0000, 0.0000
0, 1.7050, 553, -0.4857, 0.1770, -0.8698, 0.7819, -0.5740, 0.3640, 0.0000, 0.0000, 0.0000, 0.0000, 0.0000, 0.0000, 1.0000, -0.0006, 0.0006, -0.0004, 0.0000, 0.0000, 0.0000, 0.0000, 0.0000, 0.0000, 0.0000
0, 1.7075, 554, -0.4933, 0.1695, -0.8505, -0.2808, -0.4998, -0.5000, 0.0000, 0.0000, 0.0000, 0.0000, 0.0000, 0.0000, 1.0000, -0.0006, 0.0007, -0.0004, 0.0000, 0.0000, 0.0000, 0.0000, 0.0000, 0.0000, 0.0000
0, 1.7100, 555, -0.4973, 0.1577, -0.8542, -0.3484, -0.4362, -0.5680, 0.0000, 0.0000, 0.0000, 0.0000, 0.0000, 0.0000, 1.0000, -0.0007, 0.0007, -0.0004, 0.0000, 0.0000, 0.0000, 0.0000, 0.0000, 0.0000, 0.0000
0, 1.7125, 556, -0.5134, 0.1772, -0.8544, -0.0255, -0.0899, -0.7860, 0.0000, 0.0000, 0.0000, 0.0000, 0.0000, 0.0000, 1.0000, -0.0006, 0.0008, -0.0003, 0.0000, 0.0000, 0.0000, 0.0000, 0.0000, 0.0000, 0.0000
0, 1.7150, 557, -0.5096, 0.1810, -0.8621, 0.4436, -0.4790, -0.7872, 0.0000, 0.0000, 0.0000, 0.0000, 0.0000, 0.0000, 1.0000, -0.0006, 0.0008, -0.0003, 0.0000, 0.0000, 0.0000, 0.0000, 0.0000, 0.0000, 0.0000
0, 1.7175, 558, -0.5015, 0.1693, -0.8620, -0.0900, -0.1585, -0.7152, 0.0000, 0.0000, 0.0000, 0.0000, 0.0000, 0.0000, 1.0000, -0.0006, 0.0009, -0.0003, 0.0000, 0.0000, 0.0000, 0.0000, 0.0000, 0.0000, 0.0000
0, 1.7200, 559, -0.4894, 0.1734, -0.8543, 0.1153, -0.4105, -0.2380, 0.0000, 0.0000, 0.0000, 0.0000, 0.0000, 0.0000, 1.0000, -0.0006, 0.0008, -0.0003, 0.0000, 0.0000, 0.0000, 0.0000, 0.0000, 0.0000, 0.0000
0, 1.7225, 560, -0.4936, 0.1770, -0.8659, 0.3153, -0.5402, -0.3073, 0.0000, 0.0000, 0.0000, 0.0000, 0.0000, 0.0000, 1.0000, -0.0006, 0.0008, -0.0003, 0.0000, 0.0000, 0.0000, 0.0000, 0.0000, 0.0000, 0.0000
0, 1.7250, 561, -0.4937, 0.1730, -0.8736, 0.2439, -0.3477, -0.6500, 0.0000, 0.0000, 0.0000, 0.0000, 0.0000, 0.0000, 1.0000, -0.0006, 0.0008, -0.0003, 0.0000, 0.0000, 0.0000, 0.0000, 0.0000, 0.0000, 0.0000
0, 1.7275, 562, -0.4895, 0.1850, -0.8583, 0.4410, -0.2708, -0.5876, 0.0000, 0.0000, 0.0000, 0.0000, 0.0000, 0.0000, 1.0000, -0.0006, 0.0008, -0.0003, 0.0000, 0.0000, 0.0000, 0.0000, 0.0000, 0.0000, 0.0000
0, 1.7400, 563, -0.4935, 0.1732, -0.8620, -0.0242, 0.1365, 0.1612, 0.0000, 0.0000, 0.0000, 0.0000, 0.0000, 0.0000, 1.0000, -0.0005, 0.0010, -0.0002, 0.0000, 0.0000, 0.0000, 0.0000, 0.0000, 0.0000, 0.0000
0, 1.7425, 564, -0.5137, 0.1690, -0.8735, -0.2231, -0.0957, -0.7139, 0.0000, 0.0000, 0.0000, 0.0000, 0.0000, 0.0000, 1.0000, -0.0005, 0.0010, -0.0001, 0.0000, 0.0000, 0.0000, 0.0000, 0.0000, 0.0000, 0.0000
0, 1.7500, 565, -0.4895, 0.1771, -0.8621, -0.2900, -0.0288, -0.6459, 0.0000, 0.0000, 0.0000, 0.0000, 0.0000, 0.0000, 1.0000, -0.0005, 0.0011, -0.0001, 0.0000, 0.0000, 0.0000, 0.0000, 0.0000, 0.0000, 0.0000
0, 1.7525, 566, -0.4895, 0.1694, -0.8581, 0.4460, -0.4674, -0.3115, 0.0000, 0.0000, 0.0000, 0.0000, 0.0000, 0.0000, 1.0000, -0.0005, 0.0011, -0.0001, 0.0000, 0.0000, 0.0000, 0.0000, 0.0000, 0.0000, 0.0000
0, 1.7550, 567, -0.4974, 0.1734, -0.8505, -0.0167, -0.4154, -0.2352, 0.0000, 0.0000, 0.0000, 0.0000, 0.0000, 0.0000, 1.0000, -0.0004, 0.0011, -0.0001, 0.0000, 0.0000, 0.0000, 0.0000, 0.0000, 0.0000, 0.0000
0, 1.7575, 568, -0.4937, 0.1651, -0.8773, 0.0467, -0.2047, -0.0370, 0.0000, 0.0000, 0.0000, 0.0000, 0.0000, 0.0000, 1.0000, -0.0005, 0.0010, -0.0001, 0.0000, 0.0000, 0.0000, 0.0000, 0.0000, 0.0000, 0.0000
0, 1.7600, 569, -0.5058, 0.1729, -0.8774, -0.4144, -0.2188, 0.1087, 0.0000, 0.0000, 0.0000, 0.0000, 0.0000, 0.0000, 1.0000, -0.0005, 0.0011, -0.0001, 0.0000, 0.0000, 0.0000, 0.0000, 0.0000, 0.0000, 0.0000
0, 1.7625, 570, -0.4934, 0.1615, -0.8581, -0.1562, -0.0155, -0.3089, 0.0000, 0.0000, 0.0000, 0.0000, 0.0000, 0.0000, 1.0000, -0.0006, 0.0011, -0.0001, 0.0000, 0.0000, 0.0000, 0.0000, 0.0000, 0.0000, 0.0000
0, 1.7650, 571, -0.5095, 0.1771, -0.8621, -0.1511, -0.2849, -0.2352, 0.0000, 0.0000, 0.0000, 0.0000, 0.0000, 0.0000, 1.0000, -0.0006, 0.0011, -0.0001, 0.0000, 0.0000, 0.0000, 0.0000, 0.0000, 0.0000, 0.0000
0, 1.7750, 572, -0.4896, 0.1652, -0.8696, 0.0518, -0.4014, 0.2392, 0.0000, 0.0000, 0.0000, 0.0000, 0.0000, 0.0000, 1.0000, -0.0008, 0.0012, -0.0002, 0.0000, 0.0000, 0.0000, 0.0000, 0.0000, 0.0000, 0.0000
0, 1.7775, 573, -0.4977, 0.1769, -0.8736, -0.4168, -0.0833, 0.1059, 0.0000, 0.0000, 0.0000, 0.0000, 0.0000, 0.0000, 1.0000, -0.0008, 0.0011, -0.0002, 0.0000, 0.0000, 0.0000, 0.0000, 0.0000, 0.0000, 0.0000
0, 1.7800, 574, -0.5094, 0.1734, -0.8505, 0.0441, -0.1436, -0.3102, 0.0000, 0.0000, 0.0000, 0.0000, 0.0000, 0.0000, 1.0000, -0.0007, 0.0013, -0.0001, 0.0000, 0.0000, 0.0000, 0.0000, 0.0000, 0.0000, 0.0000
0, 1.7875, 575, -0.5014, 0.1812, -0.8506, 0.3789, -0.4022, -0.3115, 0.0000, 0.0000, 0.0000, 0.0000, 0.0000, 0.0000, 1.0000, -0.0007, 0.0013, -0.0001, 0.0000, 0.0000, 0.0000, 0.0000, 0.0000, 0.0000, 0.0000
0, 1.7900, 576, -0.4857, 0.1809, -0.8698, 0.6429, -0.2451, 0.1558, 0.0000, 0.0000, 0.0000, 0.0000, 0.0000, 0.0000, 1.0000, -0.0007, 0.0013, -0.0001, 0.0000, 0.0000, 0.0000, 0.0000, 0.0000, 0.0000, 0.0000
0, 1.7925, 577, -0.4856, 0.1731, -0.8697, -0.0825, -0.3436, 0.0366, 0.0000, 0.0000, 0.0000, 0.0000, 0.0000, 0.0000, 1.0000, -0.0007, 0.0012, -0.0002, 0.0000, 0.0000, 0.0000, 0.0000, 0.0000, 0.0000, 0.0000
0, 1.7950, 578, -0.4976, 0.1652, -0.8696, 0.1698, 0.3456, 0.0848, 0.0000, 0.0000, 0.0000, 0.0000, 0.0000, 0.0000, 1.0000, -0.0007, 0.0011, -0.0002, 0.0000, 0.0000, 0.0000, 0.0000, 0.0000, 0.0000, 0.0000
0, 1.7975, 579, -0.4896, 0.1810, -0.8621, 0.3774, -0.0419, 0.5649, 0.0000, 0.0000, 0.0000, 0.0000, 0.0000, 0.0000, 1.0000, -0.0007, 0.0011, -0.0002, 0.0000, 0.0000, 0.0000, 0.0000, 0.0000, 0.0000, 0.0000
0, 1.8000, 580, -0.4895, 0.1771, -0.8621, 0.2396, 0.2192, 0.3581, 0.0000, 0.0000, 0.0000, 0.0000, 0.0000, 0.0000, 1.0000, -0.0007, 0.0011, -0.0002, 0.0000, 0.0000, 0.0000, 0.0000, 0.0000, 0.0000, 0.0000
0, 1.8025, 581, -0.4813, 0.1696, -0.8505, 0.4432, -0.1138, 0.2931, 0.0000, 0.0000, 0.0000, 0.0000, 0.0000, 0.0000, 1.0000, -0.0007, 0.0010, -0.0002, 0.0000, 0.0000, 0.0000, 0.0000, 0.0000, 0.0000, 0.0000
