SensorId, TimeStamp (s), FrameNumber, AccX (g), AccY (g), AccZ (g), GyroX (deg/s), GyroY (deg/s), GyroZ (deg/s), MagX (uT), MagY (uT), MagZ (uT), EulerX (deg), EulerY (deg), EulerZ (deg), QuatW, QuatX, QuatY, QuatZ, LinAccX (g), LinAccY (g), LinAccZ (g), Pressure (kPa), Altitude (m), Temperature (degC), HeaveMotion (m)
0, 0.0000, 0, -0.4817, 0.2085, -0.8624, 0.4019, -0.0749, 0.0359, 0.0000, 0.0000, 0.0000, 0.0000, 0.0000, 0.0000, 1.0000, 0.0001, -0.0007, 0.0028, 0.0000, 0.0000, 0.0000, 0.0000, 0.0000, 0.0000, 0.0000
0, 0.0050, 1, -0.4738, 0.2084, -0.8701, -0.1274, -0.1014, -0.2248, 0.0000, 0.0000, 0.0000, 0.0000, 0.0000, 0.0000, 1.0000, 0.0001, -0.0006, 0.0028, 0.0000, 0.0000, 0.0000, 0.0000, 0.0000, 0.0000, 0.0000
0, 0.0075, 2, -0.4777, 0.1927, -0.8699, -0.3892, -0.1015, 0.1886, 0.0000, 0.0000, 0.0000, 0.0000, 0.0000, 0.0000, 1.0000, 0.0001, -0.0006, 0.0028, 0.0000, 0.0000, 0.0000, 0.0000, 0.0000, 0.0000, 0.0000
0, 0.0100, 3, -0.4697, 0.1888, -0.8699, -0.0617, 0.0465, 0.1788, 0.0000, 0.0000, 0.0000, 0.0000, 0.0000, 0.0000, 1.0000, -0.0001, -0.0006, 0.0028, 0.0000, 0.0000, 0.0000, 0.0000, 0.0000, 0.0000, 0.0000
0, 0.0125, 4, -0.4736, 0.2008, -0.8585, 0.2001, 0.0465, -0.2346, 0.0000, 0.0000, 0.0000, 0.0000, 0.0000, 0.0000, 1.0000, -0.0001, -0.0006, 0.0028, 0.0000, 0.0000, 0.0000, 0.0000, 0.0000, 0.0000, 0.0000
0, 0.0150, 5, -0.4778, 0.2044, -0.8739, -0.2566, -0.2403, -0.1512, 0.0000, 0.0000, 0.0000, 0.0000, 0.0000, 0.0000, 1.0000, -0.0001, -0.0006, 0.0028, 0.0000, 0.0000, 0.0000, 0.0000, 0.0000, 0.0000, 0.0000
0, 0.0175, 6, -0.4738, 0.2005, -0.8738, 0.6748, -0.4632, 0.3787, 0.0000, 0.0000, 0.0000, 0.0000, 0.0000, 0.0000, 1.0000, -0.0001, -0.0006, 0.0028, 0.0000, 0.0000, 0.0000, 0.0000, 0.0000, 0.0000, 0.0000
0, 0.0200, 7, -0.4776, 0.1968, -0.8584, 0.2770, -0.4137, 0.2497, 0.0000, 0.0000, 0.0000, 0.0000, 0.0000, 0.0000, 1.0000, -0.0001, -0.0005, 0.0028, 0.0000, 0.0000, 0.0000, 0.0000, 0.0000, 0.0000, 0.0000
0, 0.0225, 8, -0.4738, 0.1965, -0.8738, -0.1944, 0.0382, 0.0456, 0.0000, 0.0000, 0.0000, 0.0000, 0.0000, 0.0000, 1.0000, -0.0002, -0.0006, 0.0028, 0.0000, 0.0000, 0.0000, 0.0000, 0.0000, 0.0000, 0.0000
0, 0.0275, 9, -0.4738, 0.2044, -0.8739, 0.3357, -0.0047, 0.2398, 0.0000, 0.0000, 0.0000, 0.0000, 0.0000, 0.0000, 1.0000, -0.0002, -0.0006, 0.0027, 0.0000, 0.0000, 0.0000, 0.0000, 0.0000, 0.0000, 0.0000
0, 0.0300, 10, -0.4701, 0.2119, -0.8893, -0.2600, 0.0374, 0.1150, 0.0000, 0.0000, 0.0000, 0.0000, 0.0000, 0.0000, 1.0000, -0.0001, -0.0007, 0.0028, 0.0000, 0.0000, 0.0000, 0.0000, 0.0000, 0.0000, 0.0000
0, 0.0350, 11, -0.4659, 0.2161, -0.8740, -0.5914, 0.0183, -0.1499, 0.0000, 0.0000, 0.0000, 0.0000, 0.0000, 0.0000, 1.0000, -0.0000, -0.0008, 0.0028, 0.0000, 0.0000, 0.0000, 0.0000, 0.0000, 0.0000, 0.0000
0, 0.0375, 12, -0.4658, 0.2124, -0.8663, -0.3341, 0.5108, 0.1744, 0.0000, 0.0000, 0.0000, 0.0000, 0.0000, 0.0000, 1.0000, 0.0000, -0.0008, 0.0028, 0.0000, 0.0000, 0.0000, 0.0000, 0.0000, 0.0000, 0.0000
0, 0.0400, 13, -0.4699, 0.2082, -0.8778, 0.0695, 0.0481, 0.0401, 0.0000, 0.0000, 0.0000, 0.0000, 0.0000, 0.0000, 1.0000, 0.0001, -0.0009, 0.0029, 0.0000, 0.0000, 0.0000, 0.0000, 0.0000, 0.0000, 0.0000
0, 0.0500, 14, -0.4856, 0.2006, -0.8623, 0.3995, 0.0606, 0.0331, 0.0000, 0.0000, 0.0000, 0.0000, 0.0000, 0.0000, 1.0000, 0.0001, -0.0008, 0.0028, 0.0000, 0.0000, 0.0000, 0.0000, 0.0000, 0.0000, 0.0000
0, 0.0525, 15, -0.4776, 0.2047, -0.8585, -0.3196, -0.3023, 0.1915, 0.0000, 0.0000, 0.0000, 0.0000, 0.0000, 0.0000, 1.0000, 0.0001, -0.0008, 0.0028, 0.0000, 0.0000, 0.0000, 0.0000, 0.0000, 0.0000, 0.0000
0, 0.0550, 16, -0.4654, 0.1931, -0.8507, 0.0692, 0.0465, -0.0279, 0.0000, 0.0000, 0.0000, 0.0000, 0.0000, 0.0000, 1.0000, 0.0000, -0.0007, 0.0028, 0.0000, 0.0000, 0.0000, 0.0000, 0.0000, 0.0000, 0.0000
0, 0.0575, 17, -0.4736, 0.2008, -0.8585, -0.2577, -0.2452, -0.3551, 0.0000, 0.0000, 0.0000, 0.0000, 0.0000, 0.0000, 1.0000, 0.0000, -0.0007, 0.0028, 0.0000, 0.0000, 0.0000, 0.0000, 0.0000, 0.0000, 0.0000
0, 0.0600, 18, -0.4858, 0.2162, -0.8663, 0.0605, 0.4464, -0.3083, 0.0000, 0.0000, 0.0000, 0.0000, 0.0000, 0.0000, 1.0000, 0.0001, -0.0007, 0.0028, 0.0000, 0.0000, 0.0000, 0.0000, 0.0000, 0.0000, 0.0000
0, 0.0625, 19, -0.4698, 0.1966, -0.8738, 0.2018, -0.0923, -0.3677, 0.0000, 0.0000, 0.0000, 0.0000, 0.0000, 0.0000, 1.0000, 0.0000, -0.0007, 0.0028, 0.0000, 0.0000, 0.0000, 0.0000, 0.0000, 0.0000, 0.0000
0, 0.0650, 20, -0.4616, 0.2007, -0.8623, -0.1926, -0.1733, -0.2899, 0.0000, 0.0000, 0.0000, 0.0000, 0.0000, 0.0000, 1.0000, 0.0000, -0.0007, 0.0028, 0.0000, 0.0000, 0.0000, 0.0000, 0.0000, 0.0000, 0.0000
0, 0.0675, 21, -0.4698, 0.1887, -0.8737, -0.3276, 0.1010, 0.0470, 0.0000, 0.0000, 0.0000, 0.0000, 0.0000, 0.0000, 1.0000, -0.0001, -0.0008, 0.0028, 0.0000, 0.0000, 0.0000, 0.0000, 0.0000, 0.0000, 0.0000
0, 0.0700, 22, -0.4658, 0.2084, -0.8701, -0.1263, 0.0506, 0.4520, 0.0000, 0.0000, 0.0000, 0.0000, 0.0000, 0.0000, 1.0000, -0.0000, -0.0008, 0.0028, 0.0000, 0.0000, 0.0000, 0.0000, 0.0000, 0.0000, 0.0000
0, 0.0725, 23, -0.4737, 0.2163, -0.8625, -0.3985, 0.4422, 0.2452, 0.0000, 0.0000, 0.0000, 0.0000, 0.0000, 0.0000, 1.0000, 0.0001, -0.0008, 0.0028, 0.0000, 0.0000, 0.0000, 0.0000, 0.0000, 0.0000, 0.0000
0, 0.0750, 24, -0.4618, 0.1966, -0.8738, -0.1339, 0.0886, -0.7727, 0.0000, 0.0000, 0.0000, 0.0000, 0.0000, 0.0000, 1.0000, 0.0000, -0.0009, 0.0029, 0.0000, 0.0000, 0.0000, 0.0000, 0.0000, 0.0000, 0.0000
0, 0.0775, 25, -0.4659, 0.1965, -0.8776, -0.1228, -0.4468, -0.4895, 0.0000, 0.0000, 0.0000, 0.0000, 0.0000, 0.0000, 1.0000, -0.0000, -0.0009, 0.0029, 0.0000, 0.0000, 0.0000, 0.0000, 0.0000, 0.0000, 0.0000
0, 0.0800, 26, -0.4738, 0.1925, -0.8776, 0.1336, 0.1151, -0.0987, 0.0000, 0.0000, 0.0000, 0.0000, 0.0000, 0.0000, 1.0000, -0.0001, -0.0009, 0.0028, 0.0000, 0.0000, 0.0000, 0.0000, 0.0000, 0.0000, 0.0000
0, 0.0825, 27, -0.4736, 0.2008, -0.8585, 0.1962, 0.3952, 0.1661, 0.0000, 0.0000, 0.0000, 0.0000, 0.0000, 0.0000, 1.0000, -0.0001, -0.0009, 0.0028, 0.0000, 0.0000, 0.0000, 0.0000, 0.0000, 0.0000, 0.0000
0, 0.0850, 28, -0.4817, 0.2046, -0.8624, 0.3856, 0.7299, -0.3209, 0.0000, 0.0000, 0.0000, 0.0000, 0.0000, 0.0000, 1.0000, -0.0001, -0.0009, 0.0028, 0.0000, 0.0000, 0.0000, 0.0000, 0.0000, 0.0000, 0.0000
0, 0.0875, 29, -0.4697, 0.2084, -0.8662, -0.1322, 0.1696, -0.2305, 0.0000, 0.0000, 0.0000, 0.0000, 0.0000, 0.0000, 1.0000, -0.0001, -0.0009, 0.0029, 0.0000, 0.0000, 0.0000, 0.0000, 0.0000, 0.0000, 0.0000
0, 0.0900, 30, -0.4696, 0.2125, -0.8586, -0.4087, 0.9082, -0.1046, 0.0000, 0.0000, 0.0000, 0.0000, 0.0000, 0.0000, 1.0000, -0.0000, -0.0010, 0.0029, 0.0000, 0.0000, 0.0000, 0.0000, 0.0000, 0.0000, 0.0000
0, 0.0925, 31, -0.4857, 0.1966, -0.8661, 0.2034, -0.0113, 0.1746, 0.0000, 0.0000, 0.0000, 0.0000, 0.0000, 0.0000, 1.0000, -0.0001, -0.0009, 0.0029, 0.0000, 0.0000, 0.0000, 0.0000, 0.0000, 0.0000, 0.0000
0, 0.0950, 32, -0.4697, 0.2164, -0.8586, -0.0711, 0.4431, -0.2375, 0.0000, 0.0000, 0.0000, 0.0000, 0.0000, 0.0000, 1.0000, 0.0000, -0.0009, 0.0029, 0.0000, 0.0000, 0.0000, 0.0000, 0.0000, 0.0000, 0.0000
0, 0.0975, 33, -0.4736, 0.2125, -0.8586, 0.3234, 0.4514, -0.5177, 0.0000, 0.0000, 0.0000, 0.0000, 0.0000, 0.0000, 1.0000, 0.0001, -0.0009, 0.0029, 0.0000, 0.0000, 0.0000, 0.0000, 0.0000, 0.0000, 0.0000
0, 0.1025, 34, -0.4818, 0.2122, -0.8701, 0.3288, 0.2564, -0.1737, 0.0000, 0.0000, 0.0000, 0.0000, 0.0000, 0.0000, 1.0000, 0.0001, -0.0009, 0.0029, 0.0000, 0.0000, 0.0000, 0.0000, 0.0000, 0.0000, 0.0000
0, 0.1050, 35, -0.4578, 0.2005, -0.8738, 0.5292, 0.2754, 0.2979, 0.0000, 0.0000, 0.0000, 0.0000, 0.0000, 0.0000, 1.0000, 0.0001, -0.0010, 0.0029, 0.0000, 0.0000, 0.0000, 0.0000, 0.0000, 0.0000, 0.0000
0, 0.1075, 36, -0.4816, 0.2125, -0.8586, -0.2001, 0.3786, 0.1065, 0.0000, 0.0000, 0.0000, 0.0000, 0.0000, 0.0000, 1.0000, 0.0002, -0.0009, 0.0029, 0.0000, 0.0000, 0.0000, 0.0000, 0.0000, 0.0000, 0.0000
0, 0.1100, 37, -0.4816, 0.2086, -0.8547, -0.3999, 0.5827, 0.4462, 0.0000, 0.0000, 0.0000, 0.0000, 0.0000, 0.0000, 1.0000, 0.0002, -0.0009, 0.0029, 0.0000, 0.0000, 0.0000, 0.0000, 0.0000, 0.0000, 0.0000
0, 0.1125, 38, -0.4737, 0.2045, -0.8662, -0.0719, 0.5125, -0.1710, 0.0000, 0.0000, 0.0000, 0.0000, 0.0000, 0.0000, 1.0000, 0.0002, -0.0009, 0.0029, 0.0000, 0.0000, 0.0000, 0.0000, 0.0000, 0.0000, 0.0000
0, 0.1150, 39, -0.4738, 0.2005, -0.8700, 0.2087, -0.3534, 0.0458, 0.0000, 0.0000, 0.0000, 0.0000, 0.0000, 0.0000, 1.0000, 0.0002, -0.0009, 0.0029, 0.0000, 0.0000, 0.0000, 0.0000, 0.0000, 0.0000, 0.0000
0, 0.1175, 40, -0.4816, 0.1967, -0.8623, 0.5321, -0.0782, -0.3067, 0.0000, 0.0000, 0.0000, 0.0000, 0.0000, 0.0000, 1.0000, 0.0002, -0.0008, 0.0029, 0.0000, 0.0000, 0.0000, 0.0000, 0.0000, 0.0000, 0.0000
0, 0.1200, 41, -0.4739, 0.1925, -0.8814, 0.1299, 0.1713, -0.5758, 0.0000, 0.0000, 0.0000, 0.0000, 0.0000, 0.0000, 1.0000, 0.0001, -0.0008, 0.0029, 0.0000, 0.0000, 0.0000, 0.0000, 0.0000, 0.0000, 0.0000
0, 0.1225, 42, -0.4738, 0.1925, -0.8776, -0.2638, 0.3133, 0.3132, 0.0000, 0.0000, 0.0000, 0.0000, 0.0000, 0.0000, 1.0000, 0.0001, -0.0009, 0.0029, 0.0000, 0.0000, 0.0000, 0.0000, 0.0000, 0.0000, 0.0000
0, 0.1250, 43, -0.4737, 0.1888, -0.8699, -0.4625, 0.1555, -0.2915, 0.0000, 0.0000, 0.0000, 0.0000, 0.0000, 0.0000, 1.0000, 0.0000, -0.0009, 0.0029, 0.0000, 0.0000, 0.0000, 0.0000, 0.0000, 0.0000, 0.0000
0, 0.1350, 44, -0.4733, 0.2011, -0.8393, -0.5930, -0.0627, -0.6922, 0.0000, 0.0000, 0.0000, 0.0000, 0.0000, 0.0000, 1.0000, 0.0000, -0.0009, 0.0030, 0.0000, 0.0000, 0.0000, 0.0000, 0.0000, 0.0000, 0.0000
0, 0.1375, 45, -0.4696, 0.1968, -0.8623, -0.1269, -0.1725, -0.3593, 0.0000, 0.0000, 0.0000, 0.0000, 0.0000, 0.0000, 1.0000, 0.0000, -0.0009, 0.0030, 0.0000, 0.0000, 0.0000, 0.0000, 0.0000, 0.0000, 0.0000
0, 0.1400, 46, -0.4696, 0.1968, -0.8623, 0.3317, 0.0498, -0.3053, 0.0000, 0.0000, 0.0000, 0.0000, 0.0000, 0.0000, 1.0000, -0.0000, -0.0009, 0.0030, 0.0000, 0.0000, 0.0000, 0.0000, 0.0000, 0.0000, 0.0000
0, 0.1425, 47, -0.4817, 0.1967, -0.8661, 0.5316, -0.0072, -0.1721, 0.0000, 0.0000, 0.0000, 0.0000, 0.0000, 0.0000, 1.0000, -0.0001, -0.0009, 0.0030, 0.0000, 0.0000, 0.0000, 0.0000, 0.0000, 0.0000, 0.0000
0, 0.1450, 48, -0.4694, 0.1971, -0.8469, -0.7179, -0.1817, 0.1970, 0.0000, 0.0000, 0.0000, 0.0000, 0.0000, 0.0000, 1.0000, -0.0000, -0.0008, 0.0030, 0.0000, 0.0000, 0.0000, 0.0000, 0.0000, 0.0000, 0.0000
0, 0.1475, 49, -0.4696, 0.2048, -0.8547, -0.3901, -0.1792, -0.2178, 0.0000, 0.0000, 0.0000, 0.0000, 0.0000, 0.0000, 1.0000, -0.0000, -0.0008, 0.0030, 0.0000, 0.0000, 0.0000, 0.0000, 0.0000, 0.0000, 0.0000
0, 0.1525, 50, -0.4696, 0.2008, -0.8585, -0.0672, 0.0944, -0.6382, 0.0000, 0.0000, 0.0000, 0.0000, 0.0000, 0.0000, 1.0000, -0.0000, -0.0008, 0.0030, 0.0000, 0.0000, 0.0000, 0.0000, 0.0000, 0.0000, 0.0000
0, 0.1550, 51, -0.4779, 0.2003, -0.8815, -0.2620, -0.0453, -0.4953, 0.0000, 0.0000, 0.0000, 0.0000, 0.0000, 0.0000, 1.0000, -0.0000, -0.0008, 0.0030, 0.0000, 0.0000, 0.0000, 0.0000, 0.0000, 0.0000, 0.0000
0, 0.1650, 52, -0.4699, 0.2083, -0.8739, -0.1962, 0.2497, 0.3812, 0.0000, 0.0000, 0.0000, 0.0000, 0.0000, 0.0000, 1.0000, -0.0002, -0.0008, 0.0030, 0.0000, 0.0000, 0.0000, 0.0000, 0.0000, 0.0000, 0.0000
0, 0.1675, 53, -0.4617, 0.2046, -0.8662, 0.0051, -0.0204, 0.1108, 0.0000, 0.0000, 0.0000, 0.0000, 0.0000, 0.0000, 1.0000, -0.0001, -0.0011, 0.0030, 0.0000, 0.0000, 0.0000, 0.0000, 0.0000, 0.0000, 0.0000
0, 0.1725, 54, -0.4737, 0.1967, -0.8661, -0.4663, 0.2844, -0.5662, 0.0000, 0.0000, 0.0000, 0.0000, 0.0000, 0.0000, 1.0000, -0.0002, -0.0011, 0.0030, 0.0000, 0.0000, 0.0000, 0.0000, 0.0000, 0.0000, 0.0000
0, 0.1750, 55, -0.4736, 0.1929, -0.8584, 0.7331, 0.0168, 0.5033, 0.0000, 0.0000, 0.0000, 0.0000, 0.0000, 0.0000, 1.0000, -0.0002, -0.0011, 0.0030, 0.0000, 0.0000, 0.0000, 0.0000, 0.0000, 0.0000, 0.0000
0, 0.1775, 56, -0.4858, 0.2044, -0.8700, 0.4753, -0.4046, 0.3135, 0.0000, 0.0000, 0.0000, 0.0000, 0.0000, 0.0000, 1.0000, -0.0002, -0.0011, 0.0030, 0.0000, 0.0000, 0.0000, 0.0000, 0.0000, 0.0000, 0.0000
0, 0.1800, 57, -0.4778, 0.2004, -0.8738, 0.7284, -0.0047, -0.3802, 0.0000, 0.0000, 0.0000, 0.0000, 0.0000, 0.0000, 1.0000, -0.0003, -0.0010, 0.0030, 0.0000, 0.0000, 0.0000, 0.0000, 0.0000, 0.0000, 0.0000
0, 0.1825, 58, -0.4818, 0.1965, -0.8738, -0.2625, 0.0258, -0.3608, 0.0000, 0.0000, 0.0000, 0.0000, 0.0000, 0.0000, 1.0000, -0.0003, -0.0010, 0.0030, 0.0000, 0.0000, 0.0000, 0.0000, 0.0000, 0.0000, 0.0000
0, 0.1850, 59, -0.4776, 0.1968, -0.8584, -0.4590, 0.0249, -0.0847, 0.0000, 0.0000, 0.0000, 0.0000, 0.0000, 0.0000, 1.0000, -0.0003, -0.0009, 0.0030, 0.0000, 0.0000, 0.0000, 0.0000, 0.0000, 0.0000, 0.0000
0, 0.1875, 60, -0.4778, 0.2005, -0.8700, -0.0025, 0.2373, -0.4386, 0.0000, 0.0000, 0.0000, 0.0000, 0.0000, 0.0000, 1.0000, -0.0003, -0.0009, 0.0030, 0.0000, 0.0000, 0.0000, 0.0000, 0.0000, 0.0000, 0.0000
0, 0.1900, 61, -0.4736, 0.1968, -0.8584, -0.0564, -0.2956, 0.0500, 0.0000, 0.0000, 0.0000, 0.0000, 0.0000, 0.0000, 1.0000, -0.0003, -0.0009, 0.0030, 0.0000, 0.0000, 0.0000, 0.0000, 0.0000, 0.0000, 0.0000
0, 0.1925, 62, -0.4817, 0.2045, -0.8662, -0.3285, 0.0233, -0.3594, 0.0000, 0.0000, 0.0000, 0.0000, 0.0000, 0.0000, 1.0000, -0.0003, -0.0008, 0.0030, 0.0000, 0.0000, 0.0000, 0.0000, 0.0000, 0.0000, 0.0000
0, 0.1950, 63, -0.4658, 0.2044, -0.8739, -0.1310, -0.1180, -0.9044, 0.0000, 0.0000, 0.0000, 0.0000, 0.0000, 0.0000, 1.0000, -0.0003, -0.0009, 0.0030, 0.0000, 0.0000, 0.0000, 0.0000, 0.0000, 0.0000, 0.0000
0, 0.1975, 64, -0.4695, 0.2008, -0.8546, -0.3336, 0.4397, 0.0399, 0.0000, 0.0000, 0.0000, 0.0000, 0.0000, 0.0000, 1.0000, -0.0003, -0.0008, 0.0030, 0.0000, 0.0000, 0.0000, 0.0000, 0.0000, 0.0000, 0.0000
0, 0.2000, 65, -0.4856, 0.1967, -0.8623, -0.2735, 0.7083, -0.1711, 0.0000, 0.0000, 0.0000, 0.0000, 0.0000, 0.0000, 1.0000, -0.0003, -0.0008, 0.0030, 0.0000, 0.0000, 0.0000, 0.0000, 0.0000, 0.0000, 0.0000
0, 0.2050, 66, -0.4653, 0.1972, -0.8431, -0.1874, -0.4427, -0.2163, 0.0000, 0.0000, 0.0000, 0.0000, 0.0000, 0.0000, 1.0000, -0.0003, -0.0007, 0.0030, 0.0000, 0.0000, 0.0000, 0.0000, 0.0000, 0.0000, 0.0000
0, 0.2075, 67, -0.4697, 0.1967, -0.8661, -0.4590, 0.0249, -0.0847, 0.0000, 0.0000, 0.0000, 0.0000, 0.0000, 0.0000, 1.0000, -0.0003, -0.0007, 0.0030, 0.0000, 0.0000, 0.0000, 0.0000, 0.0000, 0.0000, 0.0000
0, 0.2100, 68, -0.4696, 0.2007, -0.8623, 0.3391, -0.2823, -0.0264, 0.0000, 0.0000, 0.0000, 0.0000, 0.0000, 0.0000, 1.0000, -0.0003, -0.0007, 0.0030, 0.0000, 0.0000, 0.0000, 0.0000, 0.0000, 0.0000, 0.0000
0, 0.2125, 69, -0.4697, 0.2006, -0.8662, 0.1357, 0.1250, 0.3091, 0.0000, 0.0000, 0.0000, 0.0000, 0.0000, 0.0000, 1.0000, -0.0003, -0.0008, 0.0030, 0.0000, 0.0000, 0.0000, 0.0000, 0.0000, 0.0000, 0.0000
0, 0.2175, 70, -0.4777, 0.2085, -0.8624, -0.1327, 0.0208, -0.7713, 0.0000, 0.0000, 0.0000, 0.0000, 0.0000, 0.0000, 1.0000, -0.0003, -0.0007, 0.0030, 0.0000, 0.0000, 0.0000, 0.0000, 0.0000, 0.0000, 0.0000
0, 0.2200, 71, -0.4898, 0.1965, -0.8738, 0.2499, 1.0009, -0.1200, 0.0000, 0.0000, 0.0000, 0.0000, 0.0000, 0.0000, 1.0000, -0.0004, -0.0007, 0.0030, 0.0000, 0.0000, 0.0000, 0.0000, 0.0000, 0.0000, 0.0000
0, 0.2250, 72, -0.4659, 0.2004, -0.8777, 0.2041, -0.1551, -0.1623, 0.0000, 0.0000, 0.0000, 0.0000, 0.0000, 0.0000, 1.0000, -0.0004, -0.0008, 0.0030, 0.0000, 0.0000, 0.0000, 0.0000, 0.0000, 0.0000, 0.0000
0, 0.2275, 73, -0.4620, 0.1963, -0.8892, 0.2670, 0.1267, 0.1704, 0.0000, 0.0000, 0.0000, 0.0000, 0.0000, 0.0000, 1.0000, -0.0005, -0.0009, 0.0030, 0.0000, 0.0000, 0.0000, 0.0000, 0.0000, 0.0000, 0.0000
0, 0.2300, 74, -0.4777, 0.2046, -0.8624, -0.1962, 0.0299, -0.2942, 0.0000, 0.0000, 0.0000, 0.0000, 0.0000, 0.0000, 1.0000, -0.0004, -0.0008, 0.0030, 0.0000, 0.0000, 0.0000, 0.0000, 0.0000, 0.0000, 0.0000
0, 0.2325, 75, -0.4659, 0.1965, -0.8776, -0.1935, -0.0312, -0.0209, 0.0000, 0.0000, 0.0000, 0.0000, 0.0000, 0.0000, 1.0000, -0.0005, -0.0010, 0.0031, 0.0000, 0.0000, 0.0000, 0.0000, 0.0000, 0.0000, 0.0000
0, 0.2350, 76, -0.4778, 0.2083, -0.8701, 0.2664, 0.0506, -0.1680, 0.0000, 0.0000, 0.0000, 0.0000, 0.0000, 0.0000, 1.0000, -0.0005, -0.0009, 0.0031, 0.0000, 0.0000, 0.0000, 0.0000, 0.0000, 0.0000, 0.0000
0, 0.2375, 77, -0.4697, 0.2046, -0.8624, 0.0089, -0.1493, 0.3855, 0.0000, 0.0000, 0.0000, 0.0000, 0.0000, 0.0000, 1.0000, -0.0004, -0.0009, 0.0031, 0.0000, 0.0000, 0.0000, 0.0000, 0.0000, 0.0000, 0.0000
0, 0.2400, 78, -0.4815, 0.2048, -0.8508, 0.2012, 0.0515, -0.0307, 0.0000, 0.0000, 0.0000, 0.0000, 0.0000, 0.0000, 1.0000, -0.0003, -0.0007, 0.0030, 0.0000, 0.0000, 0.0000, 0.0000, 0.0000, 0.0000, 0.0000
0, 0.2425, 79, -0.4777, 0.1888, -0.8660, -0.4020, 0.5728, 0.0384, 0.0000, 0.0000, 0.0000, 0.0000, 0.0000, 0.0000, 1.0000, -0.0004, -0.0007, 0.0030, 0.0000, 0.0000, 0.0000, 0.0000, 0.0000, 0.0000, 0.0000
0, 0.2450, 80, -0.4578, 0.2006, -0.8700, 0.0025, 0.0407, -0.1624, 0.0000, 0.0000, 0.0000, 0.0000, 0.0000, 0.0000, 1.0000, -0.0004, -0.0010, 0.0031, 0.0000, 0.0000, 0.0000, 0.0000, 0.0000, 0.0000, 0.0000
0, 0.2475, 81, -0.4739, 0.2003, -0.8815, 0.0718, -0.0147, 0.2454, 0.0000, 0.0000, 0.0000, 0.0000, 0.0000, 0.0000, 1.0000, -0.0004, -0.0010, 0.0031, 0.0000, 0.0000, 0.0000, 0.0000, 0.0000, 0.0000, 0.0000
0, 0.2500, 82, -0.4779, 0.2004, -0.8777, -0.0728, 0.5819, -0.1045, 0.0000, 0.0000, 0.0000, 0.0000, 0.0000, 0.0000, 1.0000, -0.0004, -0.0010, 0.0031, 0.0000, 0.0000, 0.0000, 0.0000, 0.0000, 0.0000, 0.0000
0, 0.2525, 83, -0.4739, 0.2004, -0.8777, -0.4670, 0.4282, -0.2292, 0.0000, 0.0000, 0.0000, 0.0000, 0.0000, 0.0000, 1.0000, -0.0004, -0.0011, 0.0031, 0.0000, 0.0000, 0.0000, 0.0000, 0.0000, 0.0000, 0.0000
0, 0.2575, 84, -0.4617, 0.2006, -0.8662, -0.3277, 0.1737, 0.2495, 0.0000, 0.0000, 0.0000, 0.0000, 0.0000, 0.0000, 1.0000, -0.0004, -0.0010, 0.0031, 0.0000, 0.0000, 0.0000, 0.0000, 0.0000, 0.0000, 0.0000
0, 0.2600, 85, -0.4618, 0.2006, -0.8700, 0.3298, 0.1143, -0.4427, 0.0000, 0.0000, 0.0000, 0.0000, 0.0000, 0.0000, 1.0000, -0.0004, -0.0010, 0.0031, 0.0000, 0.0000, 0.0000, 0.0000, 0.0000, 0.0000, 0.0000
0, 0.2625, 86, -0.4819, 0.2003, -0.8777, -0.0600, -0.3122, -0.6297, 0.0000, 0.0000, 0.0000, 0.0000, 0.0000, 0.0000, 1.0000, -0.0004, -0.0010, 0.0031, 0.0000, 0.0000, 0.0000, 0.0000, 0.0000, 0.0000, 0.0000
0, 0.2675, 87, -0.4897, 0.2005, -0.8662, 0.1953, 0.4646, 0.2326, 0.0000, 0.0000, 0.0000, 0.0000, 0.0000, 0.0000, 1.0000, -0.0005, -0.0008, 0.0031, 0.0000, 0.0000, 0.0000, 0.0000, 0.0000, 0.0000, 0.0000
0, 0.2700, 88, -0.4776, 0.1928, -0.8622, 0.4719, -0.1270, 0.5797, 0.0000, 0.0000, 0.0000, 0.0000, 0.0000, 0.0000, 1.0000, -0.0005, -0.0008, 0.0030, 0.0000, 0.0000, 0.0000, 0.0000, 0.0000, 0.0000, 0.0000
0, 0.2775, 89, -0.4779, 0.1964, -0.8776, 0.0695, 0.0481, 0.0401, 0.0000, 0.0000, 0.0000, 0.0000, 0.0000, 0.0000, 1.0000, -0.0006, -0.0008, 0.0030, 0.0000, 0.0000, 0.0000, 0.0000, 0.0000, 0.0000, 0.0000
0, 0.2800, 90, -0.4656, 0.1929, -0.8622, 0.2588, 0.4555, -0.2445, 0.0000, 0.0000, 0.0000, 0.0000, 0.0000, 0.0000, 1.0000, -0.0006, -0.0009, 0.0030, 0.0000, 0.0000, 0.0000, 0.0000, 0.0000, 0.0000, 0.0000
0, 0.2825, 91, -0.4696, 0.1969, -0.8584, 0.1141, 0.1306, -0.2155, 0.0000, 0.0000, 0.0000, 0.0000, 0.0000, 0.0000, 1.0000, -0.0007, -0.0008, 0.0030, 0.0000, 0.0000, 0.0000, 0.0000, 0.0000, 0.0000, 0.0000
0, 0.2850, 92, -0.4737, 0.2164, -0.8586, -0.0695, -0.4701, 0.4811, 0.0000, 0.0000, 0.0000, 0.0000, 0.0000, 0.0000, 1.0000, -0.0006, -0.0008, 0.0030, 0.0000, 0.0000, 0.0000, 0.0000, 0.0000, 0.0000, 0.0000
0, 0.2875, 93, -0.4778, 0.2044, -0.8739, 0.2522, 0.0910, 0.7346, 0.0000, 0.0000, 0.0000, 0.0000, 0.0000, 0.0000, 1.0000, -0.0006, -0.0008, 0.0030, 0.0000, 0.0000, 0.0000, 0.0000, 0.0000, 0.0000, 0.0000
0, 0.2900, 94, -0.4818, 0.2123, -0.8663, -0.2740, -0.2148, 0.1398, 0.0000, 0.0000, 0.0000, 0.0000, 0.0000, 0.0000, 1.0000, -0.0005, -0.0008, 0.0030, 0.0000, 0.0000, 0.0000, 0.0000, 0.0000, 0.0000, 0.0000
0, 0.2925, 95, -0.4737, 0.2046, -0.8624, 0.2608, -0.4560, 0.5421, 0.0000, 0.0000, 0.0000, 0.0000, 0.0000, 0.0000, 1.0000, -0.0005, -0.0008, 0.0030, 0.0000, 0.0000, 0.0000, 0.0000, 0.0000, 0.0000, 0.0000
0, 0.2950, 96, -0.4895, 0.1969, -0.8546, 0.0740, -1.2187, 0.1542, 0.0000, 0.0000, 0.0000, 0.0000, 0.0000, 0.0000, 1.0000, -0.0005, -0.0007, 0.0030, 0.0000, 0.0000, 0.0000, 0.0000, 0.0000, 0.0000, 0.0000
0, 0.2975, 97, -0.4695, 0.2009, -0.8508, -0.1303, -0.8891, 0.0833, 0.0000, 0.0000, 0.0000, 0.0000, 0.0000, 0.0000, 1.0000, -0.0005, -0.0006, 0.0030, 0.0000, 0.0000, 0.0000, 0.0000, 0.0000, 0.0000, 0.0000
0, 0.3000, 98, -0.4777, 0.1966, -0.8700, -0.2084, -0.2140, 0.0704, 0.0000, 0.0000, 0.0000, 0.0000, 0.0000, 0.0000, 1.0000, -0.0005, -0.0006, 0.0030, 0.0000, 0.0000, 0.0000, 0.0000, 0.0000, 0.0000, 0.0000
0, 0.3025, 99, -0.4778, 0.2005, -0.8700, -0.0091, -0.3470, -0.1348, 0.0000, 0.0000, 0.0000, 0.0000, 0.0000, 0.0000, 1.0000, -0.0005, -0.0006, 0.0030, 0.0000, 0.0000, 0.0000, 0.0000, 0.0000, 0.0000, 0.0000
0, 0.3075, 100, -0.4776, 0.2007, -0.8623, -0.0748, -0.2751, 0.1370, 0.0000, 0.0000, 0.0000, 0.0000, 0.0000, 0.0000, 1.0000, -0.0005, -0.0005, 0.0029, 0.0000, 0.0000, 0.0000, 0.0000, 0.0000, 0.0000, 0.0000
0, 0.3100, 101, -0.4735, 0.2087, -0.8509, 0.7092, 0.2323, 0.2463, 0.0000, 0.0000, 0.0000, 0.0000, 0.0000, 0.0000, 1.0000, -0.0005, -0.0005, 0.0029, 0.0000, 0.0000, 0.0000, 0.0000, 0.0000, 0.0000, 0.0000
0, 0.3125, 102, -0.4777, 0.2046, -0.8624, -0.4757, 0.0537, 0.3422, 0.0000, 0.0000, 0.0000, 0.0000, 0.0000, 0.0000, 1.0000, -0.0004, -0.0004, 0.0029, 0.0000, 0.0000, 0.0000, 0.0000, 0.0000, 0.0000, 0.0000
0, 0.3150, 103, -0.4819, 0.2043, -0.8777, 0.1132, 0.4198, 0.5264, 0.0000, 0.0000, 0.0000, 0.0000, 0.0000, 0.0000, 1.0000, -0.0004, -0.0004, 0.0029, 0.0000, 0.0000, 0.0000, 0.0000, 0.0000, 0.0000, 0.0000
0, 0.3175, 104, -0.4698, 0.2084, -0.8701, 0.3145, 0.1496, 0.2561, 0.0000, 0.0000, 0.0000, 0.0000, 0.0000, 0.0000, 1.0000, -0.0004, -0.0005, 0.0029, 0.0000, 0.0000, 0.0000, 0.0000, 0.0000, 0.0000, 0.0000
0, 0.3200, 105, -0.4658, 0.2202, -0.8664, 0.3229, -0.4717, -0.2069, 0.0000, 0.0000, 0.0000, 0.0000, 0.0000, 0.0000, 1.0000, -0.0003, -0.0005, 0.0029, 0.0000, 0.0000, 0.0000, 0.0000, 0.0000, 0.0000, 0.0000
0, 0.3275, 106, -0.4856, 0.2085, -0.8585, -0.2088, 0.0041, 0.6778, 0.0000, 0.0000, 0.0000, 0.0000, 0.0000, 0.0000, 1.0000, -0.0002, -0.0004, 0.0028, 0.0000, 0.0000, 0.0000, 0.0000, 0.0000, 0.0000, 0.0000
0, 0.3300, 107, -0.4818, 0.2044, -0.8700, -0.2066, -0.2057, 0.4102, 0.0000, 0.0000, 0.0000, 0.0000, 0.0000, 0.0000, 1.0000, -0.0001, -0.0003, 0.0028, 0.0000, 0.0000, 0.0000, 0.0000, 0.0000, 0.0000, 0.0000
0, 0.3325, 108, -0.4736, 0.1968, -0.8584, 0.5220, -0.5320, -0.2096, 0.0000, 0.0000, 0.0000, 0.0000, 0.0000, 0.0000, 1.0000, -0.0002, -0.0003, 0.0028, 0.0000, 0.0000, 0.0000, 0.0000, 0.0000, 0.0000, 0.0000
0, 0.3375, 109, -0.4739, 0.2042, -0.8816, 0.1848, -0.0652, -0.0087, 0.0000, 0.0000, 0.0000, 0.0000, 0.0000, 0.0000, 1.0000, -0.0001, -0.0003, 0.0028, 0.0000, 0.0000, 0.0000, 0.0000, 0.0000, 0.0000, 0.0000
0, 0.3400, 110, -0.4818, 0.2005, -0.8700, -0.3344, -0.3380, 0.7557, 0.0000, 0.0000, 0.0000, 0.0000, 0.0000, 0.0000, 1.0000, -0.0001, -0.0003, 0.0028, 0.0000, 0.0000, 0.0000, 0.0000, 0.0000, 0.0000, 0.0000
0, 0.3425, 111, -0.4697, 0.1927, -0.8699, 0.4441, 0.2901, 0.2504, 0.0000, 0.0000, 0.0000, 0.0000, 0.0000, 0.0000, 1.0000, -0.0002, -0.0003, 0.0028, 0.0000, 0.0000, 0.0000, 0.0000, 0.0000, 0.0000, 0.0000
0, 0.3450, 112, -0.4537, 0.1928, -0.8699, -0.2158, 0.1181, -0.2085, 0.0000, 0.0000, 0.0000, 0.0000, 0.0000, 0.0000, 1.0000, -0.0002, -0.0005, 0.0028, 0.0000, 0.0000, 0.0000, 0.0000, 0.0000, 0.0000, 0.0000
0, 0.3475, 113, -0.4618, 0.2084, -0.8701, -0.1510, 0.1884, -0.2114, 0.0000, 0.0000, 0.0000, 0.0000, 0.0000, 0.0000, 1.0000, -0.0002, -0.0006, 0.0028, 0.0000, 0.0000, 0.0000, 0.0000, 0.0000, 0.0000, 0.0000
0, 0.3500, 114, -0.4779, 0.2043, -0.8777, -0.5369, -0.2198, 0.3492, 0.0000, 0.0000, 0.0000, 0.0000, 0.0000, 0.0000, 1.0000, -0.0002, -0.0006, 0.0028, 0.0000, 0.0000, 0.0000, 0.0000, 0.0000, 0.0000, 0.0000
0, 0.3525, 115, -0.4778, 0.2005, -0.8700, -0.0156, 0.0628, -0.0074, 0.0000, 0.0000, 0.0000, 0.0000, 0.0000, 0.0000, 1.0000, -0.0002, -0.0005, 0.0028, 0.0000, 0.0000, 0.0000, 0.0000, 0.0000, 0.0000, 0.0000
0, 0.3550, 116, -0.4778, 0.1926, -0.8738, 0.1119, 0.3405, 0.0521, 0.0000, 0.0000, 0.0000, 0.0000, 0.0000, 0.0000, 1.0000, -0.0003, -0.0005, 0.0028, 0.0000, 0.0000, 0.0000, 0.0000, 0.0000, 0.0000, 0.0000
0, 0.3575, 117, -0.4818, 0.2083, -0.8701, -0.8004, -0.4479, -0.2526, 0.0000, 0.0000, 0.0000, 0.0000, 0.0000, 0.0000, 1.0000, -0.0002, -0.0005, 0.0028, 0.0000, 0.0000, 0.0000, 0.0000, 0.0000, 0.0000, 0.0000
0, 0.3600, 118, -0.4817, 0.1967, -0.8661, -0.2142, 0.1991, 0.3337, 0.0000, 0.0000, 0.0000, 0.0000, 0.0000, 0.0000, 1.0000, -0.0002, -0.0005, 0.0028, 0.0000, 0.0000, 0.0000, 0.0000, 0.0000, 0.0000, 0.0000
0, 0.3650, 119, -0.4738, 0.2123, -0.8663, -0.5515, 0.5189, 0.0617, 0.0000, 0.0000, 0.0000, 0.0000, 0.0000, 0.0000, 1.0000, -0.0002, -0.0005, 0.0028, 0.0000, 0.0000, 0.0000, 0.0000, 0.0000, 0.0000, 0.0000
0, 0.3675, 120, -0.4699, 0.2122, -0.8740, -0.0163, 0.0595, -0.1433, 0.0000, 0.0000, 0.0000, 0.0000, 0.0000, 0.0000, 1.0000, -0.0001, -0.0006, 0.0028, 0.0000, 0.0000, 0.0000, 0.0000, 0.0000, 0.0000, 0.0000
0, 0.3725, 121, -0.4698, 0.1926, -0.8738, -0.5374, -0.2959, 0.0109, 0.0000, 0.0000, 0.0000, 0.0000, 0.0000, 0.0000, 1.0000, -0.0002, -0.0006, 0.0029, 0.0000, 0.0000, 0.0000, 0.0000, 0.0000, 0.0000, 0.0000
0, 0.3750, 122, -0.4778, 0.2005, -0.8700, 0.0558, 0.0174, 0.8082, 0.0000, 0.0000, 0.0000, 0.0000, 0.0000, 0.0000, 1.0000, -0.0002, -0.0006, 0.0029, 0.0000, 0.0000, 0.0000, 0.0000, 0.0000, 0.0000, 0.0000
0, 0.3825, 123, -0.4698, 0.2045, -0.8700, 0.5101, 0.2926, 0.2490, 0.0000, 0.0000, 0.0000, 0.0000, 0.0000, 0.0000, 1.0000, -0.0002, -0.0006, 0.0028, 0.0000, 0.0000, 0.0000, 0.0000, 0.0000, 0.0000, 0.0000
0, 0.3850, 124, -0.4737, 0.1966, -0.8700, 0.1877, -0.1247, 0.3325, 0.0000, 0.0000, 0.0000, 0.0000, 0.0000, 0.0000, 1.0000, -0.0002, -0.0006, 0.0028, 0.0000, 0.0000, 0.0000, 0.0000, 0.0000, 0.0000, 0.0000
0, 0.3875, 125, -0.4816, 0.2007, -0.8585, -0.0259, 0.6016, -0.1547, 0.0000, 0.0000, 0.0000, 0.0000, 0.0000, 0.0000, 1.0000, -0.0002, -0.0006, 0.0028, 0.0000, 0.0000, 0.0000, 0.0000, 0.0000, 0.0000, 0.0000
0, 0.3950, 126, -0.4776, 0.2007, -0.8623, -0.2055, -0.4206, -0.0612, 0.0000, 0.0000, 0.0000, 0.0000, 0.0000, 0.0000, 1.0000, -0.0001, -0.0005, 0.0028, 0.0000, 0.0000, 0.0000, 0.0000, 0.0000, 0.0000, 0.0000
0, 0.3975, 127, -0.4738, 0.2005, -0.8738, 0.3198, -0.3395, -0.3456, 0.0000, 0.0000, 0.0000, 0.0000, 0.0000, 0.0000, 1.0000, -0.0001, -0.0005, 0.0028, 0.0000, 0.0000, 0.0000, 0.0000, 0.0000, 0.0000, 0.0000
0, 0.4000, 128, -0.4776, 0.1967, -0.8623, -0.0133, -0.2198, -0.4775, 0.0000, 0.0000, 0.0000, 0.0000, 0.0000, 0.0000, 1.0000, -0.0002, -0.0005, 0.0028, 0.0000, 0.0000, 0.0000, 0.0000, 0.0000, 0.0000, 0.0000
0, 0.4025, 129, -0.4697, 0.2164, -0.8586, -0.1374, -0.4082, 0.3452, 0.0000, 0.0000, 0.0000, 0.0000, 0.0000, 0.0000, 1.0000, -0.0001, -0.0005, 0.0028, 0.0000, 0.0000, 0.0000, 0.0000, 0.0000, 0.0000, 0.0000
0, 0.4050, 130, -0.4696, 0.2126, -0.8547, 0.3271, -0.4519, 0.6087, 0.0000, 0.0000, 0.0000, 0.0000, 0.0000, 0.0000, 1.0000, -0.0000, -0.0005, 0.0028, 0.0000, 0.0000, 0.0000, 0.0000, 0.0000, 0.0000, 0.0000
0, 0.4075, 131, -0.4658, 0.2045, -0.8700, 0.1267, -0.4709, 0.1371, 0.0000, 0.0000, 0.0000, 0.0000, 0.0000, 0.0000, 1.0000, -0.0000, -0.0005, 0.0028, 0.0000, 0.0000, 0.0000, 0.0000, 0.0000, 0.0000, 0.0000
0, 0.4100, 132, -0.4816, 0.2006, -0.8623, 0.4533, -0.4007, -0.2790, 0.0000, 0.0000, 0.0000, 0.0000, 0.0000, 0.0000, 1.0000, -0.0000, -0.0005, 0.0028, 0.0000, 0.0000, 0.0000, 0.0000, 0.0000, 0.0000, 0.0000
0, 0.4150, 133, -0.4736, 0.2007, -0.8623, -0.2805, 0.1950, 0.2672, 0.0000, 0.0000, 0.0000, 0.0000, 0.0000, 0.0000, 1.0000, 0.0000, -0.0005, 0.0028, 0.0000, 0.0000, 0.0000, 0.0000, 0.0000, 0.0000, 0.0000
0, 0.4175, 134, -0.4697, 0.1967, -0.8661, -0.0819, 0.2058, 0.3989, 0.0000, 0.0000, 0.0000, 0.0000, 0.0000, 0.0000, 1.0000, -0.0000, -0.0005, 0.0028, 0.0000, 0.0000, 0.0000, 0.0000, 0.0000, 0.0000, 0.0000
0, 0.4200, 135, -0.4577, 0.2086, -0.8624, -0.1427, -0.0661, 0.4740, 0.0000, 0.0000, 0.0000, 0.0000, 0.0000, 0.0000, 1.0000, 0.0001, -0.0006, 0.0028, 0.0000, 0.0000, 0.0000, 0.0000, 0.0000, 0.0000, 0.0000
0, 0.4250, 136, -0.4735, 0.2009, -0.8508, -0.0891, 0.6123, 0.3904, 0.0000, 0.0000, 0.0000, 0.0000, 0.0000, 0.0000, 1.0000, 0.0000, -0.0006, 0.0028, 0.0000, 0.0000, 0.0000, 0.0000, 0.0000, 0.0000, 0.0000
0, 0.4275, 137, -0.4736, 0.2007, -0.8623, -0.3586, 0.7230, -0.2186, 0.0000, 0.0000, 0.0000, 0.0000, 0.0000, 0.0000, 1.0000, 0.0000, -0.0006, 0.0028, 0.0000, 0.0000, 0.0000, 0.0000, 0.0000, 0.0000, 0.0000
0, 0.4300, 138, -0.4577, 0.1967, -0.8700, 0.1164, 0.0678, -0.0102, 0.0000, 0.0000, 0.0000, 0.0000, 0.0000, 0.0000, 1.0000, -0.0001, -0.0009, 0.0028, 0.0000, 0.0000, 0.0000, 0.0000, 0.0000, 0.0000, 0.0000
0, 0.4325, 139, -0.4816, 0.2086, -0.8585, -0.2808, -0.0265, -0.4762, 0.0000, 0.0000, 0.0000, 0.0000, 0.0000, 0.0000, 1.0000, -0.0000, -0.0008, 0.0028, 0.0000, 0.0000, 0.0000, 0.0000, 0.0000, 0.0000, 0.0000
0, 0.4425, 140, -0.4696, 0.2007, -0.8623, -0.0016, -0.5321, 0.6171, 0.0000, 0.0000, 0.0000, 0.0000, 0.0000, 0.0000, 1.0000, 0.0000, -0.0008, 0.0028, 0.0000, 0.0000, 0.0000, 0.0000, 0.0000, 0.0000, 0.0000
0, 0.4450, 141, -0.4738, 0.2163, -0.8663, 0.5981, -0.9228, 0.3412, 0.0000, 0.0000, 0.0000, 0.0000, 0.0000, 0.0000, 1.0000, 0.0001, -0.0008, 0.0028, 0.0000, 0.0000, 0.0000, 0.0000, 0.0000, 0.0000, 0.0000
0, 0.4500, 142, -0.4737, 0.1967, -0.8661, -0.2013, -0.5478, 0.2814, 0.0000, 0.0000, 0.0000, 0.0000, 0.0000, 0.0000, 1.0000, 0.0002, -0.0008, 0.0028, 0.0000, 0.0000, 0.0000, 0.0000, 0.0000, 0.0000, 0.0000
0, 0.4525, 143, -0.4818, 0.2043, -0.8739, 0.3198, -0.1925, 0.1273, 0.0000, 0.0000, 0.0000, 0.0000, 0.0000, 0.0000, 1.0000, 0.0002, -0.0008, 0.0028, 0.0000, 0.0000, 0.0000, 0.0000, 0.0000, 0.0000, 0.0000
0, 0.4550, 144, -0.4856, 0.1928, -0.8622, 1.0487, -0.0775, 0.9261, 0.0000, 0.0000, 0.0000, 0.0000, 0.0000, 0.0000, 1.0000, 0.0001, -0.0008, 0.0027, 0.0000, 0.0000, 0.0000, 0.0000, 0.0000, 0.0000, 0.0000
0, 0.4575, 145, -0.4896, 0.2047, -0.8547, 0.1880, -0.2701, -0.0724, 0.0000, 0.0000, 0.0000, 0.0000, 0.0000, 0.0000, 1.0000, 0.0002, -0.0006, 0.0027, 0.0000, 0.0000, 0.0000, 0.0000, 0.0000, 0.0000, 0.0000
0, 0.4600, 146, -0.4659, 0.2043, -0.8777, -0.4074, -0.2264, -0.1293, 0.0000, 0.0000, 0.0000, 0.0000, 0.0000, 0.0000, 1.0000, 0.0002, -0.0007, 0.0027, 0.0000, 0.0000, 0.0000, 0.0000, 0.0000, 0.0000, 0.0000
0, 0.4625, 147, -0.4698, 0.2084, -0.8701, -0.8715, -0.1811, -0.3248, 0.0000, 0.0000, 0.0000, 0.0000, 0.0000, 0.0000, 1.0000, 0.0002, -0.0007, 0.0028, 0.0000, 0.0000, 0.0000, 0.0000, 0.0000, 0.0000, 0.0000
0, 0.4675, 148, -0.4777, 0.2045, -0.8662, 0.4477, 0.0869, 0.2547, 0.0000, 0.0000, 0.0000, 0.0000, 0.0000, 0.0000, 1.0000, 0.0003, -0.0006, 0.0028, 0.0000, 0.0000, 0.0000, 0.0000, 0.0000, 0.0000, 0.0000
0, 0.4700, 149, -0.4615, 0.2009, -0.8508, -0.4077, -0.0810, 0.2757, 0.0000, 0.0000, 0.0000, 0.0000, 0.0000, 0.0000, 1.0000, 0.0004, -0.0006, 0.0028, 0.0000, 0.0000, 0.0000, 0.0000, 0.0000, 0.0000, 0.0000
0, 0.4725, 150, -0.4737, 0.1928, -0.8661, -0.2058, -0.4222, -0.1292, 0.0000, 0.0000, 0.0000, 0.0000, 0.0000, 0.0000, 1.0000, 0.0003, -0.0006, 0.0028, 0.0000, 0.0000, 0.0000, 0.0000, 0.0000, 0.0000, 0.0000
0, 0.4750, 151, -0.4817, 0.1927, -0.8661, 0.1880, -0.2701, -0.0724, 0.0000, 0.0000, 0.0000, 0.0000, 0.0000, 0.0000, 1.0000, 0.0002, -0.0005, 0.0028, 0.0000, 0.0000, 0.0000, 0.0000, 0.0000, 0.0000, 0.0000
0, 0.4775, 152, -0.4737, 0.2085, -0.8624, 0.2518, -0.0578, 0.1938, 0.0000, 0.0000, 0.0000, 0.0000, 0.0000, 0.0000, 1.0000, 0.0003, -0.0005, 0.0028, 0.0000, 0.0000, 0.0000, 0.0000, 0.0000, 0.0000, 0.0000
0, 0.4850, 153, -0.4817, 0.1966, -0.8700, -0.2093, -0.2917, -0.3359, 0.0000, 0.0000, 0.0000, 0.0000, 0.0000, 0.0000, 1.0000, 0.0003, -0.0005, 0.0028, 0.0000, 0.0000, 0.0000, 0.0000, 0.0000, 0.0000, 0.0000
0, 0.4875, 154, -0.4897, 0.2084, -0.8662, 0.0552, -0.2057, -0.0031, 0.0000, 0.0000, 0.0000, 0.0000, 0.0000, 0.0000, 1.0000, 0.0004, -0.0003, 0.0028, 0.0000, 0.0000, 0.0000, 0.0000, 0.0000, 0.0000, 0.0000
0, 0.4950, 155, -0.4818, 0.1965, -0.8738, -0.2698, -0.3421, 0.4824, 0.0000, 0.0000, 0.0000, 0.0000, 0.0000, 0.0000, 1.0000, 0.0002, -0.0001, 0.0028, 0.0000, 0.0000, 0.0000, 0.0000, 0.0000, 0.0000, 0.0000
0, 0.4975, 156, -0.4818, 0.2004, -0.8738, -0.7431, 0.1743, 0.1410, 0.0000, 0.0000, 0.0000, 0.0000, 0.0000, 0.0000, 1.0000, 0.0002, -0.0001, 0.0028, 0.0000, 0.0000, 0.0000, 0.0000, 0.0000, 0.0000, 0.0000
0, 0.5000, 157, -0.4736, 0.1968, -0.8623, -0.1498, 0.2677, 0.2630, 0.0000, 0.0000, 0.0000, 0.0000, 0.0000, 0.0000, 1.0000, 0.0002, -0.0001, 0.0028, 0.0000, 0.0000, 0.0000, 0.0000, 0.0000, 0.0000, 0.0000
0, 0.5025, 158, -0.4738, 0.2123, -0.8701, -0.4844, 0.3065, -0.4111, 0.0000, 0.0000, 0.0000, 0.0000, 0.0000, 0.0000, 1.0000, 0.0002, -0.0001, 0.0028, 0.0000, 0.0000, 0.0000, 0.0000, 0.0000, 0.0000, 0.0000
0, 0.5050, 159, -0.4816, 0.1967, -0.8623, -0.1530, 0.4726, 0.3267, 0.0000, 0.0000, 0.0000, 0.0000, 0.0000, 0.0000, 1.0000, 0.0002, -0.0001, 0.0028, 0.0000, 0.0000, 0.0000, 0.0000, 0.0000, 0.0000, 0.0000
0, 0.5075, 160, -0.4699, 0.2043, -0.8777, -0.1452, -0.0777, -0.0018, 0.0000, 0.0000, 0.0000, 0.0000, 0.0000, 0.0000, 1.0000, 0.0002, -0.0002, 0.0028, 0.0000, 0.0000, 0.0000, 0.0000, 0.0000, 0.0000, 0.0000
0, 0.5100, 161, -0.4778, 0.2044, -0.8739, -0.0116, 0.0083, 0.5377, 0.0000, 0.0000, 0.0000, 0.0000, 0.0000, 0.0000, 1.0000, 0.0002, -0.0002, 0.0028, 0.0000, 0.0000, 0.0000, 0.0000, 0.0000, 0.0000, 0.0000
0, 0.5125, 162, -0.4697, 0.2006, -0.8662, -0.2060, -0.3495, 0.0733, 0.0000, 0.0000, 0.0000, 0.0000, 0.0000, 0.0000, 1.0000, 0.0002, -0.0002, 0.0028, 0.0000, 0.0000, 0.0000, 0.0000, 0.0000, 0.0000, 0.0000
0, 0.5150, 163, -0.4775, 0.1970, -0.8507, -0.1439, 0.0017, 0.4725, 0.0000, 0.0000, 0.0000, 0.0000, 0.0000, 0.0000, 1.0000, 0.0002, -0.0001, 0.0028, 0.0000, 0.0000, 0.0000, 0.0000, 0.0000, 0.0000, 0.0000
0, 0.5175, 164, -0.4737, 0.1888, -0.8699, 0.2526, -0.2743, -0.3457, 0.0000, 0.0000, 0.0000, 0.0000, 0.0000, 0.0000, 1.0000, 0.0001, -0.0001, 0.0028, 0.0000, 0.0000, 0.0000, 0.0000, 0.0000, 0.0000, 0.0000
0, 0.5200, 165, -0.4857, 0.1888, -0.8660, 0.0639, -0.4585, 0.7502, 0.0000, 0.0000, 0.0000, 0.0000, 0.0000, 0.0000, 1.0000, 0.0001, -0.0001, 0.0028, 0.0000, 0.0000, 0.0000, 0.0000, 0.0000, 0.0000, 0.0000
0, 0.5225, 166, -0.4737, 0.1967, -0.8661, -0.0751, -0.3495, -0.1334, 0.0000, 0.0000, 0.0000, 0.0000, 0.0000, 0.0000, 1.0000, 0.0001, -0.0001, 0.0028, 0.0000, 0.0000, 0.0000, 0.0000, 0.0000, 0.0000, 0.0000
0, 0.5275, 167, -0.4856, 0.2006, -0.8623, 0.0535, -0.0669, 0.1300, 0.0000, 0.0000, 0.0000, 0.0000, 0.0000, 0.0000, 1.0000, -0.0000, 0.0000, 0.0029, 0.0000, 0.0000, 0.0000, 0.0000, 0.0000, 0.0000, 0.0000
0, 0.5300, 168, -0.4537, 0.2164, -0.8625, -0.2804, 0.1223, 0.0647, 0.0000, 0.0000, 0.0000, 0.0000, 0.0000, 0.0000, 1.0000, 0.0001, -0.0002, 0.0028, 0.0000, 0.0000, 0.0000, 0.0000, 0.0000, 0.0000, 0.0000
0, 0.5350, 169, -0.4778, 0.2005, -0.8700, 0.1912, -0.2553, 0.5392, 0.0000, 0.0000, 0.0000, 0.0000, 0.0000, 0.0000, 1.0000, 0.0001, -0.0001, 0.0028, 0.0000, 0.0000, 0.0000, 0.0000, 0.0000, 0.0000, 0.0000
0, 0.5375, 170, -0.4820, 0.2041, -0.8854, -0.2736, -0.2132, 0.2077, 0.0000, 0.0000, 0.0000, 0.0000, 0.0000, 0.0000, 1.0000, 0.0001, -0.0001, 0.0028, 0.0000, 0.0000, 0.0000, 0.0000, 0.0000, 0.0000, 0.0000
0, 0.5425, 171, -0.4737, 0.2084, -0.8662, -0.1469, 0.0612, 0.1313, 0.0000, 0.0000, 0.0000, 0.0000, 0.0000, 0.0000, 1.0000, 0.0003, 0.0000, 0.0028, 0.0000, 0.0000, 0.0000, 0.0000, 0.0000, 0.0000, 0.0000
0, 0.5450, 172, -0.4777, 0.2006, -0.8662, -0.7460, 0.3808, 0.2727, 0.0000, 0.0000, 0.0000, 0.0000, 0.0000, 0.0000, 1.0000, 0.0003, 0.0000, 0.0028, 0.0000, 0.0000, 0.0000, 0.0000, 0.0000, 0.0000, 0.0000
0, 0.5475, 173, -0.4658, 0.2005, -0.8738, -0.4686, -0.2801, 0.5532, 0.0000, 0.0000, 0.0000, 0.0000, 0.0000, 0.0000, 1.0000, 0.0003, -0.0000, 0.0028, 0.0000, 0.0000, 0.0000, 0.0000, 0.0000, 0.0000, 0.0000
0, 0.5500, 174, -0.4820, 0.2041, -0.8854, -0.4088, -0.2331, -0.4011, 0.0000, 0.0000, 0.0000, 0.0000, 0.0000, 0.0000, 1.0000, 0.0003, -0.0000, 0.0028, 0.0000, 0.0000, 0.0000, 0.0000, 0.0000, 0.0000, 0.0000
0, 0.5550, 175, -0.4696, 0.1929, -0.8622, -0.4087, -0.3058, -0.6036, 0.0000, 0.0000, 0.0000, 0.0000, 0.0000, 0.0000, 1.0000, 0.0003, -0.0000, 0.0028, 0.0000, 0.0000, 0.0000, 0.0000, 0.0000, 0.0000, 0.0000
0, 0.5575, 176, -0.4738, 0.2005, -0.8738, -0.6211, 0.4998, -0.6165, 0.0000, 0.0000, 0.0000, 0.0000, 0.0000, 0.0000, 1.0000, 0.0003, -0.0001, 0.0028, 0.0000, 0.0000, 0.0000, 0.0000, 0.0000, 0.0000, 0.0000
0, 0.5600, 177, -0.4736, 0.2007, -0.8623, -0.0150, 0.1388, 0.3310, 0.0000, 0.0000, 0.0000, 0.0000, 0.0000, 0.0000, 1.0000, 0.0003, -0.0001, 0.0028, 0.0000, 0.0000, 0.0000, 0.0000, 0.0000, 0.0000, 0.0000
0, 0.5625, 178, -0.4777, 0.1967, -0.8661, 0.1847, -0.2123, -0.4816, 0.0000, 0.0000, 0.0000, 0.0000, 0.0000, 0.0000, 1.0000, 0.0003, -0.0000, 0.0028, 0.0000, 0.0000, 0.0000, 0.0000, 0.0000, 0.0000, 0.0000
0, 0.5650, 179, -0.4777, 0.1966, -0.8700, -0.0731, -0.2669, 0.4768, 0.0000, 0.0000, 0.0000, 0.0000, 0.0000, 0.0000, 1.0000, 0.0002, -0.0000, 0.0028, 0.0000, 0.0000, 0.0000, 0.0000, 0.0000, 0.0000, 0.0000
0, 0.5675, 180, -0.4695, 0.1969, -0.8546, -0.3405, -0.1463, 0.2757, 0.0000, 0.0000, 0.0000, 0.0000, 0.0000, 0.0000, 1.0000, 0.0002, -0.0000, 0.0028, 0.0000, 0.0000, 0.0000, 0.0000, 0.0000, 0.0000, 0.0000
0, 0.5700, 181, -0.4696, 0.1929, -0.8584, 0.2465, 0.2843, 0.3226, 0.0000, 0.0000, 0.0000, 0.0000, 0.0000, 0.0000, 1.0000, 0.0002, -0.0000, 0.0028, 0.0000, 0.0000, 0.0000, 0.0000, 0.0000, 0.0000, 0.0000
0, 0.5750, 182, -0.4697, 0.2084, -0.8662, 0.2549, -0.3371, -0.1404, 0.0000, 0.0000, 0.0000, 0.0000, 0.0000, 0.0000, 1.0000, 0.0002, -0.0000, 0.0028, 0.0000, 0.0000, 0.0000, 0.0000, 0.0000, 0.0000, 0.0000
0, 0.5775, 183, -0.4737, 0.1966, -0.8700, -0.0040, -0.3966, 0.6142, 0.0000, 0.0000, 0.0000, 0.0000, 0.0000, 0.0000, 1.0000, 0.0002, -0.0000, 0.0028, 0.0000, 0.0000, 0.0000, 0.0000, 0.0000, 0.0000, 0.0000
0, 0.5800, 184, -0.4737, 0.1967, -0.8661, 0.3043, 0.6156, -0.0937, 0.0000, 0.0000, 0.0000, 0.0000, 0.0000, 0.0000, 1.0000, 0.0002, -0.0001, 0.0028, 0.0000, 0.0000, 0.0000, 0.0000, 0.0000, 0.0000, 0.0000
0, 0.5850, 185, -0.4738, 0.2163, -0.8663, 0.0467, 0.1215, -0.4860, 0.0000, 0.0000, 0.0000, 0.0000, 0.0000, 0.0000, 1.0000, 0.0003, -0.0001, 0.0028, 0.0000, 0.0000, 0.0000, 0.0000, 0.0000, 0.0000, 0.0000
0, 0.5875, 186, -0.4697, 0.2045, -0.8662, -0.1469, -0.0859, -0.3416, 0.0000, 0.0000, 0.0000, 0.0000, 0.0000, 0.0000, 1.0000, 0.0003, -0.0001, 0.0028, 0.0000, 0.0000, 0.0000, 0.0000, 0.0000, 0.0000, 0.0000
0, 0.5925, 187, -0.4735, 0.1970, -0.8507, -0.0101, -0.2049, 0.1342, 0.0000, 0.0000, 0.0000, 0.0000, 0.0000, 0.0000, 1.0000, 0.0002, 0.0000, 0.0028, 0.0000, 0.0000, 0.0000, 0.0000, 0.0000, 0.0000, 0.0000
0, 0.5950, 188, -0.4737, 0.2006, -0.8662, -0.0846, 0.1198, -0.3472, 0.0000, 0.0000, 0.0000, 0.0000, 0.0000, 0.0000, 1.0000, 0.0002, 0.0000, 0.0028, 0.0000, 0.0000, 0.0000, 0.0000, 0.0000, 0.0000, 0.0000
0, 0.5975, 189, -0.4656, 0.2007, -0.8623, -0.0106, -0.1338, 0.2687, 0.0000, 0.0000, 0.0000, 0.0000, 0.0000, 0.0000, 1.0000, 0.0002, -0.0001, 0.0028, 0.0000, 0.0000, 0.0000, 0.0000, 0.0000, 0.0000, 0.0000
0, 0.6025, 190, -0.4817, 0.2163, -0.8625, -0.0786, 0.0008, 0.3352, 0.0000, 0.0000, 0.0000, 0.0000, 0.0000, 0.0000, 1.0000, 0.0003, -0.0000, 0.0028, 0.0000, 0.0000, 0.0000, 0.0000, 0.0000, 0.0000, 0.0000
0, 0.6050, 191, -0.4777, 0.1928, -0.8661, -0.2228, 0.5991, 0.0534, 0.0000, 0.0000, 0.0000, 0.0000, 0.0000, 0.0000, 1.0000, 0.0003, -0.0000, 0.0028, 0.0000, 0.0000, 0.0000, 0.0000, 0.0000, 0.0000, 0.0000
0, 0.6075, 192, -0.4738, 0.2005, -0.8700, -0.0210, 0.2578, -0.3515, 0.0000, 0.0000, 0.0000, 0.0000, 0.0000, 0.0000, 1.0000, 0.0003, -0.0000, 0.0028, 0.0000, 0.0000, 0.0000, 0.0000, 0.0000, 0.0000, 0.0000
0, 0.6100, 193, -0.4696, 0.2008, -0.8585, 0.8489, -0.2403, 0.1175, 0.0000, 0.0000, 0.0000, 0.0000, 0.0000, 0.0000, 1.0000, 0.0002, -0.0000, 0.0028, 0.0000, 0.0000, 0.0000, 0.0000, 0.0000, 0.0000, 0.0000
0, 0.6150, 194, -0.4739, 0.1925, -0.8814, 0.4523, -0.2585, -0.0100, 0.0000, 0.0000, 0.0000, 0.0000, 0.0000, 0.0000, 1.0000, 0.0002, -0.0001, 0.0028, 0.0000, 0.0000, 0.0000, 0.0000, 0.0000, 0.0000, 0.0000
0, 0.6175, 195, -0.4818, 0.1807, -0.8813, -0.2838, 0.0330, -0.8174, 0.0000, 0.0000, 0.0000, 0.0000, 0.0000, 0.0000, 1.0000, 0.0001, -0.0001, 0.0028, 0.0000, 0.0000, 0.0000, 0.0000, 0.0000, 0.0000, 0.0000
0, 0.6200, 196, -0.4738, 0.2084, -0.8701, 0.3079, 0.4124, -0.0894, 0.0000, 0.0000, 0.0000, 0.0000, 0.0000, 0.0000, 1.0000, 0.0001, -0.0001, 0.0028, 0.0000, 0.0000, 0.0000, 0.0000, 0.0000, 0.0000, 0.0000
0, 0.6225, 197, -0.4656, 0.1890, -0.8622, 0.3842, -0.2709, -0.4164, 0.0000, 0.0000, 0.0000, 0.0000, 0.0000, 0.0000, 1.0000, 0.0000, -0.0001, 0.0028, 0.0000, 0.0000, 0.0000, 0.0000, 0.0000, 0.0000, 0.0000
0, 0.6250, 198, -0.4858, 0.2004, -0.8738, 0.6561, -0.5171, 0.1954, 0.0000, 0.0000, 0.0000, 0.0000, 0.0000, 0.0000, 1.0000, 0.0000, -0.0001, 0.0028, 0.0000, 0.0000, 0.0000, 0.0000, 0.0000, 0.0000, 0.0000
0, 0.6275, 199, -0.4658, 0.1927, -0.8738, -0.6678, -0.3669, 0.0830, 0.0000, 0.0000, 0.0000, 0.0000, 0.0000, 0.0000, 1.0000, -0.0000, -0.0001, 0.0028, 0.0000, 0.0000, 0.0000, 0.0000, 0.0000, 0.0000, 0.0000
0, 0.6300, 200, -0.4816, 0.2006, -0.8623, -0.6695, -0.4479, -0.4593, 0.0000, 0.0000, 0.0000, 0.0000, 0.0000, 0.0000, 1.0000, 0.0000, -0.0001, 0.0028, 0.0000, 0.0000, 0.0000, 0.0000, 0.0000, 0.0000, 0.0000
0, 0.6325, 201, -0.4817, 0.1967, -0.8661, 0.4505, -0.2668, -0.3498, 0.0000, 0.0000, 0.0000, 0.0000, 0.0000, 0.0000, 1.0000, -0.0000, -0.0000, 0.0028, 0.0000, 0.0000, 0.0000, 0.0000, 0.0000, 0.0000, 0.0000
0, 0.6350, 202, -0.4776, 0.2007, -0.8585, -0.4682, -0.4983, -0.0542, 0.0000, 0.0000, 0.0000, 0.0000, 0.0000, 0.0000, 1.0000, -0.0000, -0.0000, 0.0028, 0.0000, 0.0000, 0.0000, 0.0000, 0.0000, 0.0000, 0.0000
0, 0.6375, 203, -0.4656, 0.2047, -0.8585, -0.3368, -0.2024, 0.7528, 0.0000, 0.0000, 0.0000, 0.0000, 0.0000, 0.0000, 1.0000, 0.0000, -0.0000, 0.0028, 0.0000, 0.0000, 0.0000, 0.0000, 0.0000, 0.0000, 0.0000
0, 0.6400, 204, -0.4777, 0.2046, -0.8624, -0.4702, -0.2140, 0.4838, 0.0000, 0.0000, 0.0000, 0.0000, 0.0000, 0.0000, 1.0000, 0.0000, -0.0000, 0.0028, 0.0000, 0.0000, 0.0000, 0.0000, 0.0000, 0.0000, 0.0000
0, 0.6425, 205, -0.4696, 0.2007, -0.8623, -0.4114, -0.0248, -0.2015, 0.0000, 0.0000, 0.0000, 0.0000, 0.0000, 0.0000, 1.0000, 0.0001, -0.0000, 0.0028, 0.0000, 0.0000, 0.0000, 0.0000, 0.0000, 0.0000, 0.0000
0, 0.6450, 206, -0.4657, 0.2085, -0.8662, 0.1841, -0.0685, -0.1447, 0.0000, 0.0000, 0.0000, 0.0000, 0.0000, 0.0000, 1.0000, 0.0001, -0.0001, 0.0028, 0.0000, 0.0000, 0.0000, 0.0000, 0.0000, 0.0000, 0.0000
0, 0.6475, 207, -0.4778, 0.2123, -0.8701, -0.1435, -0.2165, -0.1349, 0.0000, 0.0000, 0.0000, 0.0000, 0.0000, 0.0000, 1.0000, 0.0002, -0.0001, 0.0028, 0.0000, 0.0000, 0.0000, 0.0000, 0.0000, 0.0000, 0.0000
0, 0.6500, 208, -0.4657, 0.2085, -0.8624, -0.1484, 0.1273, 0.0619, 0.0000, 0.0000, 0.0000, 0.0000, 0.0000, 0.0000, 1.0000, 0.0003, -0.0002, 0.0028, 0.0000, 0.0000, 0.0000, 0.0000, 0.0000, 0.0000, 0.0000
0, 0.6525, 209, -0.4737, 0.2084, -0.8662, -0.5483, 0.3139, -0.0020, 0.0000, 0.0000, 0.0000, 0.0000, 0.0000, 0.0000, 1.0000, 0.0003, -0.0002, 0.0028, 0.0000, 0.0000, 0.0000, 0.0000, 0.0000, 0.0000, 0.0000
0, 0.6550, 210, -0.4776, 0.2007, -0.8585, -0.0173, 0.2016, 0.1257, 0.0000, 0.0000, 0.0000, 0.0000, 0.0000, 0.0000, 1.0000, 0.0003, -0.0001, 0.0028, 0.0000, 0.0000, 0.0000, 0.0000, 0.0000, 0.0000, 0.0000
0, 0.6650, 211, -0.4694, 0.2089, -0.8432, -0.3586, 0.7230, -0.2186, 0.0000, 0.0000, 0.0000, 0.0000, 0.0000, 0.0000, 1.0000, 0.0002, -0.0001, 0.0028, 0.0000, 0.0000, 0.0000, 0.0000, 0.0000, 0.0000, 0.0000
0, 0.6675, 212, -0.4817, 0.2046, -0.8624, -0.4179, 0.3850, -0.0741, 0.0000, 0.0000, 0.0000, 0.0000, 0.0000, 0.0000, 1.0000, 0.0002, -0.0001, 0.0028, 0.0000, 0.0000, 0.0000, 0.0000, 0.0000, 0.0000, 0.0000
0, 0.6700, 213, -0.4775, 0.2008, -0.8546, 0.3240, -0.3197, 0.4699, 0.0000, 0.0000, 0.0000, 0.0000, 0.0000, 0.0000, 1.0000, 0.0002, -0.0000, 0.0028, 0.0000, 0.0000, 0.0000, 0.0000, 0.0000, 0.0000, 0.0000
0, 0.6850, 214, -0.4815, 0.1969, -0.8546, 0.2490, 0.0761, 0.1230, 0.0000, 0.0000, 0.0000, 0.0000, 0.0000, 0.0000, 1.0000, 0.0002, 0.0002, 0.0028, 0.0000, 0.0000, 0.0000, 0.0000, 0.0000, 0.0000, 0.0000
0, 0.6925, 215, -0.4697, 0.1966, -0.8700, 0.0006, -0.7420, 0.3495, 0.0000, 0.0000, 0.0000, 0.0000, 0.0000, 0.0000, 1.0000, 0.0004, 0.0001, 0.0027, 0.0000, 0.0000, 0.0000, 0.0000, 0.0000, 0.0000, 0.0000
0, 0.6950, 216, -0.4696, 0.1929, -0.8622, 0.1290, -0.5337, 0.3424, 0.0000, 0.0000, 0.0000, 0.0000, 0.0000, 0.0000, 1.0000, 0.0004, 0.0001, 0.0027, 0.0000, 0.0000, 0.0000, 0.0000, 0.0000, 0.0000, 0.0000
0, 0.7000, 217, -0.4739, 0.2004, -0.8777, 0.0566, -0.1991, 0.2687, 0.0000, 0.0000, 0.0000, 0.0000, 0.0000, 0.0000, 1.0000, 0.0004, 0.0002, 0.0027, 0.0000, 0.0000, 0.0000, 0.0000, 0.0000, 0.0000, 0.0000
0, 0.7025, 218, -0.4698, 0.2045, -0.8700, 0.1885, 0.0257, 0.9413, 0.0000, 0.0000, 0.0000, 0.0000, 0.0000, 0.0000, 1.0000, 0.0004, 0.0001, 0.0027, 0.0000, 0.0000, 0.0000, 0.0000, 0.0000, 0.0000, 0.0000
0, 0.7100, 219, -0.4816, 0.1928, -0.8622, -0.0017, -0.4594, 0.8195, 0.0000, 0.0000, 0.0000, 0.0000, 0.0000, 0.0000, 1.0000, 0.0004, 0.0001, 0.0027, 0.0000, 0.0000, 0.0000, 0.0000, 0.0000, 0.0000, 0.0000
0, 0.7125, 220, -0.4736, 0.2047, -0.8547, -0.0070, -0.3371, 0.2730, 0.0000, 0.0000, 0.0000, 0.0000, 0.0000, 0.0000, 1.0000, 0.0004, 0.0002, 0.0026, 0.0000, 0.0000, 0.0000, 0.0000, 0.0000, 0.0000, 0.0000
0, 0.7150, 221, -0.4856, 0.2007, -0.8585, 0.2585, -0.5403, -0.1361, 0.0000, 0.0000, 0.0000, 0.0000, 0.0000, 0.0000, 1.0000, 0.0004, 0.0002, 0.0027, 0.0000, 0.0000, 0.0000, 0.0000, 0.0000, 0.0000, 0.0000
0, 0.7175, 222, -0.4698, 0.2124, -0.8663, 0.5222, -0.2379, 0.7362, 0.0000, 0.0000, 0.0000, 0.0000, 0.0000, 0.0000, 1.0000, 0.0005, 0.0002, 0.0026, 0.0000, 0.0000, 0.0000, 0.0000, 0.0000, 0.0000, 0.0000
0, 0.7250, 223, -0.4816, 0.2046, -0.8585, -0.0072, -0.4115, 0.0026, 0.0000, 0.0000, 0.0000, 0.0000, 0.0000, 0.0000, 1.0000, 0.0005, 0.0003, 0.0026, 0.0000, 0.0000, 0.0000, 0.0000, 0.0000, 0.0000, 0.0000
0, 0.7275, 224, -0.4656, 0.2086, -0.8586, -0.0060, -0.4792, 0.0040, 0.0000, 0.0000, 0.0000, 0.0000, 0.0000, 0.0000, 1.0000, 0.0006, 0.0003, 0.0026, 0.0000, 0.0000, 0.0000, 0.0000, 0.0000, 0.0000, 0.0000
0, 0.7300, 225, -0.4817, 0.2045, -0.8662, 0.1274, -0.4676, 0.2730, 0.0000, 0.0000, 0.0000, 0.0000, 0.0000, 0.0000, 1.0000, 0.0006, 0.0003, 0.0026, 0.0000, 0.0000, 0.0000, 0.0000, 0.0000, 0.0000, 0.0000
0, 0.7375, 226, -0.4858, 0.2043, -0.8739, -0.2874, 0.6032, 0.3266, 0.0000, 0.0000, 0.0000, 0.0000, 0.0000, 0.0000, 1.0000, 0.0006, 0.0004, 0.0026, 0.0000, 0.0000, 0.0000, 0.0000, 0.0000, 0.0000, 0.0000
0, 0.7400, 227, -0.4736, 0.1968, -0.8584, 0.1916, -0.2536, 0.6072, 0.0000, 0.0000, 0.0000, 0.0000, 0.0000, 0.0000, 1.0000, 0.0006, 0.0004, 0.0026, 0.0000, 0.0000, 0.0000, 0.0000, 0.0000, 0.0000, 0.0000
0, 0.7425, 228, -0.4818, 0.2005, -0.8700, 0.9145, -0.2395, 0.0482, 0.0000, 0.0000, 0.0000, 0.0000, 0.0000, 0.0000, 1.0000, 0.0006, 0.0004, 0.0026, 0.0000, 0.0000, 0.0000, 0.0000, 0.0000, 0.0000, 0.0000
0, 0.7450, 229, -0.4816, 0.2086, -0.8547, -0.0144, -0.0049, -0.0060, 0.0000, 0.0000, 0.0000, 0.0000, 0.0000, 0.0000, 1.0000, 0.0010, 0.0009, 0.0025, 0.0000, 0.0000, 0.0000, 0.0000, 0.0000, 0.0000, 0.0000
0, 0.7525, 230, -0.4777, 0.2046, -0.8624, 0.1768, 0.3380, -0.1532, 0.0000, 0.0000, 0.0000, 0.0000, 0.0000, 0.0000, 1.0000, 0.0010, 0.0008, 0.0025, 0.0000, 0.0000, 0.0000, 0.0000, 0.0000, 0.0000, 0.0000
0, 0.7550, 231, -0.4819, 0.2003, -0.8777, -0.0744, -0.3462, 0.0025, 0.0000, 0.0000, 0.0000, 0.0000, 0.0000, 0.0000, 1.0000, 0.0009, 0.0008, 0.0025, 0.0000, 0.0000, 0.0000, 0.0000, 0.0000, 0.0000, 0.0000
0, 0.7575, 232, -0.4738, 0.2044, -0.8739, 0.3870, -0.2577, 0.1273, 0.0000, 0.0000, 0.0000, 0.0000, 0.0000, 0.0000, 1.0000, 0.0009, 0.0007, 0.0025, 0.0000, 0.0000, 0.0000, 0.0000, 0.0000, 0.0000, 0.0000
0, 0.7600, 233, -0.4697, 0.1927, -0.8699, 0.1979, -0.7378, 0.2094, 0.0000, 0.0000, 0.0000, 0.0000, 0.0000, 0.0000, 1.0000, 0.0009, 0.0007, 0.0025, 0.0000, 0.0000, 0.0000, 0.0000, 0.0000, 0.0000, 0.0000
0, 0.7625, 234, -0.4738, 0.1925, -0.8776, -0.3374, -0.2785, 0.4145, 0.0000, 0.0000, 0.0000, 0.0000, 0.0000, 0.0000, 1.0000, 0.0008, 0.0007, 0.0025, 0.0000, 0.0000, 0.0000, 0.0000, 0.0000, 0.0000, 0.0000
0, 0.7700, 235, -0.4736, 0.2126, -0.8547, -0.4782, 0.0421, -0.1336, 0.0000, 0.0000, 0.0000, 0.0000, 0.0000, 0.0000, 1.0000, 0.0008, 0.0008, 0.0025, 0.0000, 0.0000, 0.0000, 0.0000, 0.0000, 0.0000, 0.0000
0, 0.7725, 236, -0.4817, 0.2045, -0.8662, 0.0500, 0.0637, -0.0768, 0.0000, 0.0000, 0.0000, 0.0000, 0.0000, 0.0000, 1.0000, 0.0008, 0.0008, 0.0025, 0.0000, 0.0000, 0.0000, 0.0000, 0.0000, 0.0000, 0.0000
0, 0.7775, 237, -0.4737, 0.2085, -0.8624, -0.1422, -0.1372, 0.3395, 0.0000, 0.0000, 0.0000, 0.0000, 0.0000, 0.0000, 1.0000, 0.0008, 0.0007, 0.0025, 0.0000, 0.0000, 0.0000, 0.0000, 0.0000, 0.0000, 0.0000
0, 0.7800, 238, -0.4776, 0.2007, -0.8623, -0.1467, -0.0116, -0.0712, 0.0000, 0.0000, 0.0000, 0.0000, 0.0000, 0.0000, 1.0000, 0.0008, 0.0008, 0.0025, 0.0000, 0.0000, 0.0000, 0.0000, 0.0000, 0.0000, 0.0000
0, 0.7850, 239, -0.4775, 0.1890, -0.8583, 0.1222, -0.1983, 0.1994, 0.0000, 0.0000, 0.0000, 0.0000, 0.0000, 0.0000, 1.0000, 0.0007, 0.0009, 0.0026, 0.0000, 0.0000, 0.0000, 0.0000, 0.0000, 0.0000, 0.0000
0, 0.7875, 240, -0.4617, 0.2046, -0.8662, 0.1303, -0.6742, 0.1414, 0.0000, 0.0000, 0.0000, 0.0000, 0.0000, 0.0000, 1.0000, 0.0007, 0.0008, 0.0026, 0.0000, 0.0000, 0.0000, 0.0000, 0.0000, 0.0000, 0.0000
0, 0.7900, 241, -0.4616, 0.1969, -0.8584, -0.4111, -0.1703, -0.6064, 0.0000, 0.0000, 0.0000, 0.0000, 0.0000, 0.0000, 1.0000, 0.0007, 0.0008, 0.0026, 0.0000, 0.0000, 0.0000, 0.0000, 0.0000, 0.0000, 0.0000
0, 0.7925, 242, -0.4697, 0.1966, -0.8700, -0.0837, 0.0504, -0.4138, 0.0000, 0.0000, 0.0000, 0.0000, 0.0000, 0.0000, 1.0000, 0.0006, 0.0008, 0.0026, 0.0000, 0.0000, 0.0000, 0.0000, 0.0000, 0.0000, 0.0000
0, 0.7975, 243, -0.4859, 0.2003, -0.8815, -0.4686, -0.2801, 0.5532, 0.0000, 0.0000, 0.0000, 0.0000, 0.0000, 0.0000, 1.0000, 0.0006, 0.0007, 0.0026, 0.0000, 0.0000, 0.0000, 0.0000, 0.0000, 0.0000, 0.0000
0, 0.8000, 244, -0.4738, 0.1847, -0.8775, -0.4747, -0.0885, 0.0732, 0.0000, 0.0000, 0.0000, 0.0000, 0.0000, 0.0000, 1.0000, 0.0005, 0.0007, 0.0026, 0.0000, 0.0000, 0.0000, 0.0000, 0.0000, 0.0000, 0.0000
0, 0.8025, 245, -0.4696, 0.1968, -0.8623, -0.6128, -0.0488, -0.8770, 0.0000, 0.0000, 0.0000, 0.0000, 0.0000, 0.0000, 1.0000, 0.0005, 0.0007, 0.0027, 0.0000, 0.0000, 0.0000, 0.0000, 0.0000, 0.0000, 0.0000
0, 0.8050, 246, -0.4776, 0.1968, -0.8584, 0.1251, -0.5519, -0.4052, 0.0000, 0.0000, 0.0000, 0.0000, 0.0000, 0.0000, 1.0000, 0.0005, 0.0007, 0.0027, 0.0000, 0.0000, 0.0000, 0.0000, 0.0000, 0.0000, 0.0000
0, 0.8075, 247, -0.4736, 0.2087, -0.8547, -0.1331, -0.7552, 0.0125, 0.0000, 0.0000, 0.0000, 0.0000, 0.0000, 0.0000, 1.0000, 0.0005, 0.0008, 0.0027, 0.0000, 0.0000, 0.0000, 0.0000, 0.0000, 0.0000, 0.0000
0, 0.8100, 248, -0.4777, 0.2085, -0.8624, -0.4742, -0.1595, -0.0613, 0.0000, 0.0000, 0.0000, 0.0000, 0.0000, 0.0000, 1.0000, 0.0006, 0.0008, 0.0027, 0.0000, 0.0000, 0.0000, 0.0000, 0.0000, 0.0000, 0.0000
0, 0.8125, 249, -0.4736, 0.2008, -0.8585, -0.4105, -0.0942, -0.2681, 0.0000, 0.0000, 0.0000, 0.0000, 0.0000, 0.0000, 1.0000, 0.0006, 0.0008, 0.0027, 0.0000, 0.0000, 0.0000, 0.0000, 0.0000, 0.0000, 0.0000
0, 0.8150, 250, -0.4698, 0.2044, -0.8739, -1.0764, 0.0726, -0.7341, 0.0000, 0.0000, 0.0000, 0.0000, 0.0000, 0.0000, 1.0000, 0.0006, 0.0008, 0.0027, 0.0000, 0.0000, 0.0000, 0.0000, 0.0000, 0.0000, 0.0000
0, 0.8200, 251, -0.4859, 0.1885, -0.8814, 0.1274, -0.4676, 0.2730, 0.0000, 0.0000, 0.0000, 0.0000, 0.0000, 0.0000, 1.0000, 0.0006, 0.0008, 0.0027, 0.0000, 0.0000, 0.0000, 0.0000, 0.0000, 0.0000, 0.0000
0, 0.8225, 252, -0.4858, 0.1925, -0.8776, -0.3426, -0.1562, -0.1321, 0.0000, 0.0000, 0.0000, 0.0000, 0.0000, 0.0000, 1.0000, 0.0005, 0.0008, 0.0027, 0.0000, 0.0000, 0.0000, 0.0000, 0.0000, 0.0000, 0.0000
0, 0.8250, 253, -0.4818, 0.2201, -0.8664, -0.6730, -0.3174, -0.6660, 0.0000, 0.0000, 0.0000, 0.0000, 0.0000, 0.0000, 1.0000, 0.0006, 0.0009, 0.0027, 0.0000, 0.0000, 0.0000, 0.0000, 0.0000, 0.0000, 0.0000
0, 0.8275, 254, -0.4738, 0.2163, -0.8663, -0.0808, -0.1562, -0.5454, 0.0000, 0.0000, 0.0000, 0.0000, 0.0000, 0.0000, 1.0000, 0.0006, 0.0008, 0.0027, 0.0000, 0.0000, 0.0000, 0.0000, 0.0000, 0.0000, 0.0000
0, 0.8300, 255, -0.4896, 0.1967, -0.8623, 0.1253, -0.1107, 1.0135, 0.0000, 0.0000, 0.0000, 0.0000, 0.0000, 0.0000, 1.0000, 0.0006, 0.0009, 0.0027, 0.0000, 0.0000, 0.0000, 0.0000, 0.0000, 0.0000, 0.0000
0, 0.8400, 256, -0.4699, 0.2121, -0.8778, -0.0773, -0.2867, -0.3387, 0.0000, 0.0000, 0.0000, 0.0000, 0.0000, 0.0000, 1.0000, 0.0006, 0.0008, 0.0027, 0.0000, 0.0000, 0.0000, 0.0000, 0.0000, 0.0000, 0.0000
0, 0.8425, 257, -0.4857, 0.2085, -0.8624, -0.1435, -0.2165, -0.1349, 0.0000, 0.0000, 0.0000, 0.0000, 0.0000, 0.0000, 1.0000, 0.0006, 0.0009, 0.0027, 0.0000, 0.0000, 0.0000, 0.0000, 0.0000, 0.0000, 0.0000
0, 0.8450, 258, -0.4739, 0.2121, -0.8778, -0.0203, 0.2611, -0.2156, 0.0000, 0.0000, 0.0000, 0.0000, 0.0000, 0.0000, 1.0000, 0.0007, 0.0009, 0.0027, 0.0000, 0.0000, 0.0000, 0.0000, 0.0000, 0.0000, 0.0000
0, 0.8475, 259, -0.4857, 0.2084, -0.8662, -0.3478, 0.1132, -0.2058, 0.0000, 0.0000, 0.0000, 0.0000, 0.0000, 0.0000, 1.0000, 0.0007, 0.0009, 0.0027, 0.0000, 0.0000, 0.0000, 0.0000, 0.0000, 0.0000, 0.0000
0, 0.8525, 260, -0.4739, 0.2121, -0.8778, 0.0592, -0.6271, -0.6062, 0.0000, 0.0000, 0.0000, 0.0000, 0.0000, 0.0000, 1.0000, 0.0007, 0.0009, 0.0027, 0.0000, 0.0000, 0.0000, 0.0000, 0.0000, 0.0000, 0.0000
0, 0.8550, 261, -0.4697, 0.2006, -0.8662, -0.1346, -0.5420, 0.4160, 0.0000, 0.0000, 0.0000, 0.0000, 0.0000, 0.0000, 1.0000, 0.0007, 0.0009, 0.0026, 0.0000, 0.0000, 0.0000, 0.0000, 0.0000, 0.0000, 0.0000
0, 0.8600, 262, -0.4619, 0.1965, -0.8776, -0.8637, -0.3645, 0.4950, 0.0000, 0.0000, 0.0000, 0.0000, 0.0000, 0.0000, 1.0000, 0.0008, 0.0008, 0.0026, 0.0000, 0.0000, 0.0000, 0.0000, 0.0000, 0.0000, 0.0000
0, 0.8625, 263, -0.4737, 0.1967, -0.8661, 0.3169, -0.1330, -0.2140, 0.0000, 0.0000, 0.0000, 0.0000, 0.0000, 0.0000, 1.0000, 0.0007, 0.0008, 0.0026, 0.0000, 0.0000, 0.0000, 0.0000, 0.0000, 0.0000, 0.0000
0, 0.8650, 264, -0.4776, 0.1968, -0.8584, -0.1412, -0.2793, 0.0705, 0.0000, 0.0000, 0.0000, 0.0000, 0.0000, 0.0000, 1.0000, 0.0007, 0.0009, 0.0027, 0.0000, 0.0000, 0.0000, 0.0000, 0.0000, 0.0000, 0.0000
0, 0.8675, 265, -0.4819, 0.2003, -0.8777, -0.0716, -0.4801, 0.0733, 0.0000, 0.0000, 0.0000, 0.0000, 0.0000, 0.0000, 1.0000, 0.0007, 0.0009, 0.0027, 0.0000, 0.0000, 0.0000, 0.0000, 0.0000, 0.0000, 0.0000
0, 0.8700, 266, -0.4659, 0.2004, -0.8777, -0.1412, -0.2793, 0.0705, 0.0000, 0.0000, 0.0000, 0.0000, 0.0000, 0.0000, 1.0000, 0.0006, 0.0008, 0.0027, 0.0000, 0.0000, 0.0000, 0.0000, 0.0000, 0.0000, 0.0000
0, 0.8725, 267, -0.4816, 0.2006, -0.8623, -0.6770, 0.1040, -0.0629, 0.0000, 0.0000, 0.0000, 0.0000, 0.0000, 0.0000, 1.0000, 0.0007, 0.0008, 0.0027, 0.0000, 0.0000, 0.0000, 0.0000, 0.0000, 0.0000, 0.0000
0, 0.8750, 268, -0.4858, 0.2044, -0.8700, -0.1452, -0.0777, -0.0018, 0.0000, 0.0000, 0.0000, 0.0000, 0.0000, 0.0000, 1.0000, 0.0007, 0.0009, 0.0027, 0.0000, 0.0000, 0.0000, 0.0000, 0.0000, 0.0000, 0.0000
0, 0.8800, 269, -0.4697, 0.1966, -0.8700, 0.1838, -0.1429, -0.4151, 0.0000, 0.0000, 0.0000, 0.0000, 0.0000, 0.0000, 1.0000, 0.0006, 0.0009, 0.0027, 0.0000, 0.0000, 0.0000, 0.0000, 0.0000, 0.0000, 0.0000
0, 0.8825, 270, -0.4697, 0.2045, -0.8662, -0.1384, -0.4131, 0.1413, 0.0000, 0.0000, 0.0000, 0.0000, 0.0000, 0.0000, 1.0000, 0.0006, 0.0008, 0.0027, 0.0000, 0.0000, 0.0000, 0.0000, 0.0000, 0.0000, 0.0000
0, 0.8850, 271, -0.4776, 0.1968, -0.8584, -0.2752, -0.1471, 0.1384, 0.0000, 0.0000, 0.0000, 0.0000, 0.0000, 0.0000, 1.0000, 0.0006, 0.0009, 0.0027, 0.0000, 0.0000, 0.0000, 0.0000, 0.0000, 0.0000, 0.0000
0, 0.8900, 272, -0.4578, 0.2084, -0.8701, -0.1369, -0.4792, 0.2107, 0.0000, 0.0000, 0.0000, 0.0000, 0.0000, 0.0000, 1.0000, 0.0007, 0.0007, 0.0027, 0.0000, 0.0000, 0.0000, 0.0000, 0.0000, 0.0000, 0.0000
0, 0.8925, 273, -0.4699, 0.2004, -0.8777, -0.1534, 0.1041, -0.8896, 0.0000, 0.0000, 0.0000, 0.0000, 0.0000, 0.0000, 1.0000, 0.0006, 0.0007, 0.0027, 0.0000, 0.0000, 0.0000, 0.0000, 0.0000, 0.0000, 0.0000
0, 0.8950, 274, -0.4658, 0.2005, -0.8738, 0.2454, 0.2793, 0.1187, 0.0000, 0.0000, 0.0000, 0.0000, 0.0000, 0.0000, 1.0000, 0.0006, 0.0006, 0.0027, 0.0000, 0.0000, 0.0000, 0.0000, 0.0000, 0.0000, 0.0000
0, 0.8975, 275, -0.4736, 0.1889, -0.8622, -0.2178, 0.4024, 0.3295, 0.0000, 0.0000, 0.0000, 0.0000, 0.0000, 0.0000, 1.0000, 0.0005, 0.0006, 0.0027, 0.0000, 0.0000, 0.0000, 0.0000, 0.0000, 0.0000, 0.0000
0, 0.9000, 276, -0.4658, 0.2006, -0.8700, 0.4477, 0.0869, 0.2547, 0.0000, 0.0000, 0.0000, 0.0000, 0.0000, 0.0000, 1.0000, 0.0005, 0.0005, 0.0027, 0.0000, 0.0000, 0.0000, 0.0000, 0.0000, 0.0000, 0.0000
0, 0.9025, 277, -0.4819, 0.2082, -0.8778, -0.2734, -0.3586, -0.1972, 0.0000, 0.0000, 0.0000, 0.0000, 0.0000, 0.0000, 1.0000, 0.0005, 0.0005, 0.0027, 0.0000, 0.0000, 0.0000, 0.0000, 0.0000, 0.0000, 0.0000
0, 0.9050, 278, -0.4779, 0.2004, -0.8777, -0.5377, -0.3702, -0.2596, 0.0000, 0.0000, 0.0000, 0.0000, 0.0000, 0.0000, 1.0000, 0.0005, 0.0005, 0.0027, 0.0000, 0.0000, 0.0000, 0.0000, 0.0000, 0.0000, 0.0000
0, 0.9075, 279, -0.4777, 0.1928, -0.8661, -0.5392, -0.3041, -0.3290, 0.0000, 0.0000, 0.0000, 0.0000, 0.0000, 0.0000, 1.0000, 0.0005, 0.0005, 0.0027, 0.0000, 0.0000, 0.0000, 0.0000, 0.0000, 0.0000, 0.0000
0, 0.9100, 280, -0.4778, 0.2005, -0.8700, -0.2695, -0.3404, 0.5504, 0.0000, 0.0000, 0.0000, 0.0000, 0.0000, 0.0000, 1.0000, 0.0005, 0.0005, 0.0027, 0.0000, 0.0000, 0.0000, 0.0000, 0.0000, 0.0000, 0.0000
0, 0.9125, 281, -0.4818, 0.2005, -0.8700, -0.0661, -0.5280, 0.8903, 0.0000, 0.0000, 0.0000, 0.0000, 0.0000, 0.0000, 1.0000, 0.0005, 0.0006, 0.0027, 0.0000, 0.0000, 0.0000, 0.0000, 0.0000, 0.0000, 0.0000
0, 0.9150, 282, -0.4819, 0.2042, -0.8816, -0.1311, -0.8924, -0.0527, 0.0000, 0.0000, 0.0000, 0.0000, 0.0000, 0.0000, 1.0000, 0.0005, 0.0006, 0.0027, 0.0000, 0.0000, 0.0000, 0.0000, 0.0000, 0.0000, 0.0000
0, 0.9175, 283, -0.4819, 0.2083, -0.8739, -0.1468, -0.1587, -0.5441, 0.0000, 0.0000, 0.0000, 0.0000, 0.0000, 0.0000, 1.0000, 0.0005, 0.0006, 0.0027, 0.0000, 0.0000, 0.0000, 0.0000, 0.0000, 0.0000, 0.0000
0, 0.9200, 284, -0.4740, 0.2002, -0.8854, -0.0104, -0.2065, 0.0663, 0.0000, 0.0000, 0.0000, 0.0000, 0.0000, 0.0000, 1.0000, 0.0005, 0.0005, 0.0027, 0.0000, 0.0000, 0.0000, 0.0000, 0.0000, 0.0000, 0.0000
0, 0.9225, 285, -0.4779, 0.2121, -0.8778, -0.2014, -0.6949, -0.1915, 0.0000, 0.0000, 0.0000, 0.0000, 0.0000, 0.0000, 1.0000, 0.0005, 0.0005, 0.0027, 0.0000, 0.0000, 0.0000, 0.0000, 0.0000, 0.0000, 0.0000
0, 0.9250, 286, -0.4776, 0.1968, -0.8584, -0.4706, -0.3628, -0.0571, 0.0000, 0.0000, 0.0000, 0.0000, 0.0000, 0.0000, 1.0000, 0.0005, 0.0006, 0.0027, 0.0000, 0.0000, 0.0000, 0.0000, 0.0000, 0.0000, 0.0000
0, 0.9275, 287, -0.4779, 0.2043, -0.8777, -0.3406, -0.2934, -0.1972, 0.0000, 0.0000, 0.0000, 0.0000, 0.0000, 0.0000, 1.0000, 0.0005, 0.0006, 0.0027, 0.0000, 0.0000, 0.0000, 0.0000, 0.0000, 0.0000, 0.0000
0, 0.9300, 288, -0.4819, 0.2003, -0.8777, -0.4063, -0.2215, 0.0746, 0.0000, 0.0000, 0.0000, 0.0000, 0.0000, 0.0000, 1.0000, 0.0005, 0.0006, 0.0027, 0.0000, 0.0000, 0.0000, 0.0000, 0.0000, 0.0000, 0.0000
0, 0.9350, 289, -0.4575, 0.1970, -0.8546, 0.0554, -0.1313, 0.2673, 0.0000, 0.0000, 0.0000, 0.0000, 0.0000, 0.0000, 1.0000, 0.0004, 0.0004, 0.0027, 0.0000, 0.0000, 0.0000, 0.0000, 0.0000, 0.0000, 0.0000
0, 0.9375, 290, -0.4737, 0.1967, -0.8661, -0.1488, -0.0215, -0.4789, 0.0000, 0.0000, 0.0000, 0.0000, 0.0000, 0.0000, 1.0000, 0.0004, 0.0004, 0.0027, 0.0000, 0.0000, 0.0000, 0.0000, 0.0000, 0.0000, 0.0000
0, 0.9450, 291, -0.4936, 0.1928, -0.8622, -0.5443, 0.1123, 0.0703, 0.0000, 0.0000, 0.0000, 0.0000, 0.0000, 0.0000, 1.0000, 0.0003, 0.0006, 0.0027, 0.0000, 0.0000, 0.0000, 0.0000, 0.0000, 0.0000, 0.0000
0, 0.9475, 292, -0.4737, 0.1966, -0.8700, -0.1513, 0.3338, 0.1936, 0.0000, 0.0000, 0.0000, 0.0000, 0.0000, 0.0000, 1.0000, 0.0003, 0.0006, 0.0027, 0.0000, 0.0000, 0.0000, 0.0000, 0.0000, 0.0000, 0.0000
0, 0.9500, 293, -0.4736, 0.2125, -0.8586, -0.1427, -0.4330, -0.6743, 0.0000, 0.0000, 0.0000, 0.0000, 0.0000, 0.0000, 1.0000, 0.0003, 0.0006, 0.0027, 0.0000, 0.0000, 0.0000, 0.0000, 0.0000, 0.0000, 0.0000
0, 0.9525, 294, -0.4777, 0.2046, -0.8624, -0.4111, -0.1703, -0.6064, 0.0000, 0.0000, 0.0000, 0.0000, 0.0000, 0.0000, 1.0000, 0.0003, 0.0006, 0.0027, 0.0000, 0.0000, 0.0000, 0.0000, 0.0000, 0.0000, 0.0000
0, 0.9550, 295, -0.4736, 0.2007, -0.8623, -0.5357, -0.2876, 0.3507, 0.0000, 0.0000, 0.0000, 0.0000, 0.0000, 0.0000, 1.0000, 0.0003, 0.0006, 0.0027, 0.0000, 0.0000, 0.0000, 0.0000, 0.0000, 0.0000, 0.0000
0, 0.9575, 296, -0.4617, 0.1771, -0.8698, -0.0164, 0.1322, 0.0591, 0.0000, 0.0000, 0.0000, 0.0000, 0.0000, 0.0000, 1.0000, -0.0001, 0.0004, 0.0028, 0.0000, 0.0000, 0.0000, 0.0000, 0.0000, 0.0000, 0.0000
0, 0.9600, 297, -0.4937, 0.2005, -0.8661, 0.1174, 0.0728, 0.1937, 0.0000, 0.0000, 0.0000, 0.0000, 0.0000, 0.0000, 1.0000, -0.0001, 0.0005, 0.0027, 0.0000, 0.0000, 0.0000, 0.0000, 0.0000, 0.0000, 0.0000
0, 0.9625, 298, -0.4777, 0.2045, -0.8662, -0.0230, 0.3950, -0.2864, 0.0000, 0.0000, 0.0000, 0.0000, 0.0000, 0.0000, 1.0000, -0.0001, 0.0005, 0.0028, 0.0000, 0.0000, 0.0000, 0.0000, 0.0000, 0.0000, 0.0000
0, 0.9650, 299, -0.4617, 0.2085, -0.8624, 0.1111, 0.4099, 0.1186, 0.0000, 0.0000, 0.0000, 0.0000, 0.0000, 0.0000, 1.0000, -0.0001, 0.0004, 0.0028, 0.0000, 0.0000, 0.0000, 0.0000, 0.0000, 0.0000, 0.0000
0, 0.9675, 300, -0.4697, 0.1966, -0.8700, 0.1762, 0.4818, 0.1838, 0.0000, 0.0000, 0.0000, 0.0000, 0.0000, 0.0000, 1.0000, -0.0001, 0.0004, 0.0028, 0.0000, 0.0000, 0.0000, 0.0000, 0.0000, 0.0000, 0.0000
0, 0.9725, 301, -0.4775, 0.2009, -0.8508, -0.1497, 0.0479, -0.4124, 0.0000, 0.0000, 0.0000, 0.0000, 0.0000, 0.0000, 1.0000, -0.0001, 0.0004, 0.0028, 0.0000, 0.0000, 0.0000, 0.0000, 0.0000, 0.0000, 0.0000
0, 0.9750, 302, -0.4738, 0.1965, -0.8738, -0.0256, 0.6032, -0.0867, 0.0000, 0.0000, 0.0000, 0.0000, 0.0000, 0.0000, 1.0000, -0.0001, 0.0004, 0.0028, 0.0000, 0.0000, 0.0000, 0.0000, 0.0000, 0.0000, 0.0000
0, 0.9775, 303, -0.4737, 0.2006, -0.8662, -0.5509, 0.3751, -0.2752, 0.0000, 0.0000, 0.0000, 0.0000, 0.0000, 0.0000, 1.0000, -0.0001, 0.0004, 0.0028, 0.0000, 0.0000, 0.0000, 0.0000, 0.0000, 0.0000, 0.0000
0, 0.9800, 304, -0.4696, 0.1929, -0.8584, -0.5413, 0.0528, 0.4115, 0.0000, 0.0000, 0.0000, 0.0000, 0.0000, 0.0000, 1.0000, -0.0001, 0.0004, 0.0028, 0.0000, 0.0000, 0.0000, 0.0000, 0.0000, 0.0000, 0.0000
0, 0.9850, 305, -0.4857, 0.2006, -0.8662, 0.1190, 0.0067, 0.2631, 0.0000, 0.0000, 0.0000, 0.0000, 0.0000, 0.0000, 1.0000, -0.0001, 0.0005, 0.0028, 0.0000, 0.0000, 0.0000, 0.0000, 0.0000, 0.0000, 0.0000
0, 0.9875, 306, -0.4817, 0.2006, -0.8662, -0.0143, -0.0777, -0.2084, 0.0000, 0.0000, 0.0000, 0.0000, 0.0000, 0.0000, 1.0000, -0.0002, 0.0005, 0.0028, 0.0000, 0.0000, 0.0000, 0.0000, 0.0000, 0.0000, 0.0000
0, 0.9900, 307, -0.4735, 0.1930, -0.8545, -0.1404, -0.4958, -0.4690, 0.0000, 0.0000, 0.0000, 0.0000, 0.0000, 0.0000, 1.0000, -0.0002, 0.0005, 0.0028, 0.0000, 0.0000, 0.0000, 0.0000, 0.0000, 0.0000, 0.0000
0, 0.9925, 308, -0.4735, 0.2008, -0.8546, 0.0481, 0.1281, -0.2141, 0.0000, 0.0000, 0.0000, 0.0000, 0.0000, 0.0000, 1.0000, -0.0002, 0.0006, 0.0028, 0.0000, 0.0000, 0.0000, 0.0000, 0.0000, 0.0000, 0.0000
0, 0.9950, 309, -0.4737, 0.1967, -0.8661, 0.5109, 0.2232, 0.1825, 0.0000, 0.0000, 0.0000, 0.0000, 0.0000, 0.0000, 1.0000, -0.0002, 0.0006, 0.0027, 0.0000, 0.0000, 0.0000, 0.0000, 0.0000, 0.0000, 0.0000
0, 0.9975, 310, -0.4739, 0.2121, -0.8778, -0.7398, 0.1164, 0.5502, 0.0000, 0.0000, 0.0000, 0.0000, 0.0000, 0.0000, 1.0000, -0.0001, 0.0005, 0.0028, 0.0000, 0.0000, 0.0000, 0.0000, 0.0000, 0.0000, 0.0000
0, 1.0000, 311, -0.4817, 0.1966, -0.8700, -0.5429, 0.1189, 0.3421, 0.0000, 0.0000, 0.0000, 0.0000, 0.0000, 0.0000, 1.0000, -0.0001, 0.0006, 0.0027, 0.0000, 0.0000, 0.0000, 0.0000, 0.0000, 0.0000, 0.0000
0, 1.0025, 312, -0.4818, 0.2004, -0.8738, -0.2739, -0.2876, -0.0627, 0.0000, 0.0000, 0.0000, 0.0000, 0.0000, 0.0000, 1.0000, -0.0002, 0.0006, 0.0027, 0.0000, 0.0000, 0.0000, 0.0000, 0.0000, 0.0000, 0.0000
0, 1.0050, 313, -0.4696, 0.1968, -0.8623, -0.8717, -0.1083, -0.1224, 0.0000, 0.0000, 0.0000, 0.0000, 0.0000, 0.0000, 1.0000, -0.0002, 0.0006, 0.0028, 0.0000, 0.0000, 0.0000, 0.0000, 0.0000, 0.0000, 0.0000
0, 1.0075, 314, -0.4778, 0.2123, -0.8663, -0.8761, 0.3114, 0.4128, 0.0000, 0.0000, 0.0000, 0.0000, 0.0000, 0.0000, 1.0000, -0.0001, 0.0006, 0.0028, 0.0000, 0.0000, 0.0000, 0.0000, 0.0000, 0.0000, 0.0000
0, 1.0100, 315, -0.4739, 0.2122, -0.8740, -0.2846, 0.2495, -0.2780, 0.0000, 0.0000, 0.0000, 0.0000, 0.0000, 0.0000, 1.0000, -0.0001, 0.0005, 0.0028, 0.0000, 0.0000, 0.0000, 0.0000, 0.0000, 0.0000, 0.0000
0, 1.0125, 316, -0.4696, 0.2048, -0.8547, -0.1461, 0.0645, 0.2672, 0.0000, 0.0000, 0.0000, 0.0000, 0.0000, 0.0000, 1.0000, -0.0000, 0.0005, 0.0028, 0.0000, 0.0000, 0.0000, 0.0000, 0.0000, 0.0000, 0.0000
0, 1.0150, 317, -0.4817, 0.2084, -0.8662, 0.3769, 0.3554, 0.2504, 0.0000, 0.0000, 0.0000, 0.0000, 0.0000, 0.0000, 1.0000, 0.0000, 0.0005, 0.0028, 0.0000, 0.0000, 0.0000, 0.0000, 0.0000, 0.0000, 0.0000
0, 1.0200, 318, -0.4736, 0.2047, -0.8547, -0.3432, -0.0124, 0.2049, 0.0000, 0.0000, 0.0000, 0.0000, 0.0000, 0.0000, 1.0000, 0.0001, 0.0006, 0.0027, 0.0000, 0.0000, 0.0000, 0.0000, 0.0000, 0.0000, 0.0000
0, 1.0225, 319, -0.4617, 0.2046, -0.8624, -0.3500, 0.1760, -0.4111, 0.0000, 0.0000, 0.0000, 0.0000, 0.0000, 0.0000, 1.0000, 0.0001, 0.0005, 0.0028, 0.0000, 0.0000, 0.0000, 0.0000, 0.0000, 0.0000, 0.0000
0, 1.0250, 320, -0.4777, 0.2045, -0.8662, -0.5385, -0.3008, -0.1930, 0.0000, 0.0000, 0.0000, 0.0000, 0.0000, 0.0000, 1.0000, 0.0001, 0.0005, 0.0028, 0.0000, 0.0000, 0.0000, 0.0000, 0.0000, 0.0000, 0.0000
0, 1.0275, 321, -0.4655, 0.2088, -0.8509, -0.2757, -0.0760, 0.2729, 0.0000, 0.0000, 0.0000, 0.0000, 0.0000, 0.0000, 1.0000, 0.0002, 0.0005, 0.0028, 0.0000, 0.0000, 0.0000, 0.0000, 0.0000, 0.0000, 0.0000
0, 1.0300, 322, -0.4695, 0.2008, -0.8546, 0.0547, -0.1346, 0.1314, 0.0000, 0.0000, 0.0000, 0.0000, 0.0000, 0.0000, 1.0000, 0.0002, 0.0005, 0.0028, 0.0000, 0.0000, 0.0000, 0.0000, 0.0000, 0.0000, 0.0000
0, 1.0325, 323, -0.4617, 0.2085, -0.8624, -0.3334, -0.4801, 0.4867, 0.0000, 0.0000, 0.0000, 0.0000, 0.0000, 0.0000, 1.0000, 0.0002, 0.0005, 0.0028, 0.0000, 0.0000, 0.0000, 0.0000, 0.0000, 0.0000, 0.0000
0, 1.0350, 324, -0.4696, 0.2086, -0.8586, -0.0751, -0.3495, -0.1334, 0.0000, 0.0000, 0.0000, 0.0000, 0.0000, 0.0000, 1.0000, 0.0003, 0.0005, 0.0028, 0.0000, 0.0000, 0.0000, 0.0000, 0.0000, 0.0000, 0.0000
0, 1.0375, 325, -0.4736, 0.2165, -0.8548, 0.1235, -0.1189, 0.6737, 0.0000, 0.0000, 0.0000, 0.0000, 0.0000, 0.0000, 1.0000, 0.0004, 0.0005, 0.0027, 0.0000, 0.0000, 0.0000, 0.0000, 0.0000, 0.0000, 0.0000
0, 1.0400, 326, -0.4737, 0.2045, -0.8662, -0.0050, -0.4015, 0.4103, 0.0000, 0.0000, 0.0000, 0.0000, 0.0000, 0.0000, 1.0000, 0.0004, 0.0005, 0.0027, 0.0000, 0.0000, 0.0000, 0.0000, 0.0000, 0.0000, 0.0000
0, 1.0425, 327, -0.4817, 0.1967, -0.8661, 0.0561, -0.1280, 0.4033, 0.0000, 0.0000, 0.0000, 0.0000, 0.0000, 0.0000, 1.0000, 0.0004, 0.0005, 0.0027, 0.0000, 0.0000, 0.0000, 0.0000, 0.0000, 0.0000, 0.0000
0, 1.0450, 328, -0.4816, 0.2046, -0.8585, 0.5152, -0.1238, -0.1502, 0.0000, 0.0000, 0.0000, 0.0000, 0.0000, 0.0000, 1.0000, 0.0004, 0.0006, 0.0027, 0.0000, 0.0000, 0.0000, 0.0000, 0.0000, 0.0000, 0.0000
0, 1.0475, 329, -0.4697, 0.1967, -0.8661, 0.1928, -0.3214, 0.6086, 0.0000, 0.0000, 0.0000, 0.0000, 0.0000, 0.0000, 1.0000, 0.0004, 0.0006, 0.0027, 0.0000, 0.0000, 0.0000, 0.0000, 0.0000, 0.0000, 0.0000
0, 1.0500, 330, -0.4778, 0.1886, -0.8776, -0.8057, -0.1059, -0.1238, 0.0000, 0.0000, 0.0000, 0.0000, 0.0000, 0.0000, 1.0000, 0.0003, 0.0006, 0.0027, 0.0000, 0.0000, 0.0000, 0.0000, 0.0000, 0.0000, 0.0000
0, 1.0575, 331, -0.4659, 0.2004, -0.8777, -0.6080, 0.0470, 0.2770, 0.0000, 0.0000, 0.0000, 0.0000, 0.0000, 0.0000, 1.0000, 0.0004, 0.0005, 0.0027, 0.0000, 0.0000, 0.0000, 0.0000, 0.0000, 0.0000, 0.0000
0, 1.0600, 332, -0.4858, 0.1965, -0.8738, 0.1972, -0.5940, 0.5464, 0.0000, 0.0000, 0.0000, 0.0000, 0.0000, 0.0000, 1.0000, 0.0004, 0.0006, 0.0027, 0.0000, 0.0000, 0.0000, 0.0000, 0.0000, 0.0000, 0.0000
0, 1.0625, 333, -0.4658, 0.1887, -0.8776, 0.1887, -0.0470, 0.7389, 0.0000, 0.0000, 0.0000, 0.0000, 0.0000, 0.0000, 1.0000, 0.0003, 0.0005, 0.0027, 0.0000, 0.0000, 0.0000, 0.0000, 0.0000, 0.0000, 0.0000
0, 1.0650, 334, -0.4778, 0.2004, -0.8738, -0.0705, -0.3280, 0.7501, 0.0000, 0.0000, 0.0000, 0.0000, 0.0000, 0.0000, 1.0000, 0.0003, 0.0005, 0.0027, 0.0000, 0.0000, 0.0000, 0.0000, 0.0000, 0.0000, 0.0000
0, 1.0675, 335, -0.4858, 0.2005, -0.8700, 0.0001, -0.6709, 0.4840, 0.0000, 0.0000, 0.0000, 0.0000, 0.0000, 0.0000, 1.0000, 0.0003, 0.0005, 0.0027, 0.0000, 0.0000, 0.0000, 0.0000, 0.0000, 0.0000, 0.0000
0, 1.0750, 336, -0.4779, 0.2082, -0.8778, -0.1426, -0.2859, -0.2014, 0.0000, 0.0000, 0.0000, 0.0000, 0.0000, 0.0000, 1.0000, 0.0003, 0.0006, 0.0027, 0.0000, 0.0000, 0.0000, 0.0000, 0.0000, 0.0000, 0.0000
0, 1.0775, 337, -0.4697, 0.1928, -0.8661, -0.0274, 0.5949, -0.4266, 0.0000, 0.0000, 0.0000, 0.0000, 0.0000, 0.0000, 1.0000, 0.0003, 0.0006, 0.0027, 0.0000, 0.0000, 0.0000, 0.0000, 0.0000, 0.0000, 0.0000
0, 1.0800, 338, -0.4778, 0.2083, -0.8701, -0.0206, 0.4066, 0.1894, 0.0000, 0.0000, 0.0000, 0.0000, 0.0000, 0.0000, 1.0000, 0.0003, 0.0005, 0.0027, 0.0000, 0.0000, 0.0000, 0.0000, 0.0000, 0.0000, 0.0000
0, 1.0825, 339, -0.4859, 0.1963, -0.8815, 0.1780, 0.4900, 0.5236, 0.0000, 0.0000, 0.0000, 0.0000, 0.0000, 0.0000, 1.0000, 0.0003, 0.0005, 0.0027, 0.0000, 0.0000, 0.0000, 0.0000, 0.0000, 0.0000, 0.0000
0, 1.0850, 340, -0.4817, 0.1927, -0.8661, -0.3481, 0.2586, 0.1992, 0.0000, 0.0000, 0.0000, 0.0000, 0.0000, 0.0000, 1.0000, 0.0002, 0.0006, 0.0027, 0.0000, 0.0000, 0.0000, 0.0000, 0.0000, 0.0000, 0.0000
0, 1.0900, 341, -0.4818, 0.2043, -0.8739, -0.3372, -0.3512, 0.2120, 0.0000, 0.0000, 0.0000, 0.0000, 0.0000, 0.0000, 1.0000, 0.0002, 0.0006, 0.0026, 0.0000, 0.0000, 0.0000, 0.0000, 0.0000, 0.0000, 0.0000
0, 1.0925, 342, -0.4816, 0.2007, -0.8585, -0.2096, -0.1463, 0.0690, 0.0000, 0.0000, 0.0000, 0.0000, 0.0000, 0.0000, 1.0000, 0.0002, 0.0007, 0.0026, 0.0000, 0.0000, 0.0000, 0.0000, 0.0000, 0.0000, 0.0000
0, 1.1000, 343, -0.4737, 0.1966, -0.8700, -0.1394, -0.2710, 0.4103, 0.0000, 0.0000, 0.0000, 0.0000, 0.0000, 0.0000, 1.0000, 0.0002, 0.0006, 0.0026, 0.0000, 0.0000, 0.0000, 0.0000, 0.0000, 0.0000, 0.0000
0, 1.1025, 344, -0.4777, 0.1927, -0.8699, 0.7831, -0.3155, -0.0835, 0.0000, 0.0000, 0.0000, 0.0000, 0.0000, 0.0000, 1.0000, 0.0002, 0.0006, 0.0026, 0.0000, 0.0000, 0.0000, 0.0000, 0.0000, 0.0000, 0.0000
0, 1.1050, 345, -0.4698, 0.2044, -0.8739, -0.2744, 0.0033, 0.7472, 0.0000, 0.0000, 0.0000, 0.0000, 0.0000, 0.0000, 1.0000, 0.0002, 0.0006, 0.0026, 0.0000, 0.0000, 0.0000, 0.0000, 0.0000, 0.0000, 0.0000
0, 1.1075, 346, -0.4897, 0.1926, -0.8699, 0.5186, -0.0346, 0.7319, 0.0000, 0.0000, 0.0000, 0.0000, 0.0000, 0.0000, 1.0000, 0.0002, 0.0006, 0.0026, 0.0000, 0.0000, 0.0000, 0.0000, 0.0000, 0.0000, 0.0000
0, 1.1100, 347, -0.4697, 0.2084, -0.8662, 0.3839, -0.1255, -0.0115, 0.0000, 0.0000, 0.0000, 0.0000, 0.0000, 0.0000, 1.0000, 0.0002, 0.0006, 0.0026, 0.0000, 0.0000, 0.0000, 0.0000, 0.0000, 0.0000, 0.0000
0, 1.1125, 348, -0.4776, 0.1967, -0.8623, -0.4763, 0.1975, 0.6791, 0.0000, 0.0000, 0.0000, 0.0000, 0.0000, 0.0000, 1.0000, 0.0002, 0.0006, 0.0026, 0.0000, 0.0000, 0.0000, 0.0000, 0.0000, 0.0000, 0.0000
0, 1.1150, 349, -0.4777, 0.1966, -0.8700, -0.4133, 0.0396, -0.3389, 0.0000, 0.0000, 0.0000, 0.0000, 0.0000, 0.0000, 1.0000, 0.0002, 0.0006, 0.0026, 0.0000, 0.0000, 0.0000, 0.0000, 0.0000, 0.0000, 0.0000
0, 1.1175, 350, -0.4817, 0.1927, -0.8661, -0.3414, -0.2239, -0.1307, 0.0000, 0.0000, 0.0000, 0.0000, 0.0000, 0.0000, 1.0000, 0.0001, 0.0006, 0.0026, 0.0000, 0.0000, 0.0000, 0.0000, 0.0000, 0.0000, 0.0000
0, 1.1225, 351, -0.4816, 0.2006, -0.8623, 0.1195, -0.0644, 0.1286, 0.0000, 0.0000, 0.0000, 0.0000, 0.0000, 0.0000, 1.0000, 0.0001, 0.0007, 0.0026, 0.0000, 0.0000, 0.0000, 0.0000, 0.0000, 0.0000, 0.0000
0, 1.1325, 352, -0.4776, 0.2007, -0.8585, -0.2086, -0.2884, -0.2000, 0.0000, 0.0000, 0.0000, 0.0000, 0.0000, 0.0000, 1.0000, 0.0001, 0.0007, 0.0026, 0.0000, 0.0000, 0.0000, 0.0000, 0.0000, 0.0000, 0.0000
0, 1.1350, 353, -0.4776, 0.1967, -0.8623, -0.5340, -0.4264, 0.2176, 0.0000, 0.0000, 0.0000, 0.0000, 0.0000, 0.0000, 1.0000, 0.0001, 0.0008, 0.0026, 0.0000, 0.0000, 0.0000, 0.0000, 0.0000, 0.0000, 0.0000
0, 1.1375, 354, -0.4698, 0.1887, -0.8737, -0.0001, -0.7453, 0.2136, 0.0000, 0.0000, 0.0000, 0.0000, 0.0000, 0.0000, 1.0000, 0.0000, 0.0007, 0.0026, 0.0000, 0.0000, 0.0000, 0.0000, 0.0000, 0.0000, 0.0000
0, 1.1425, 355, -0.4775, 0.2008, -0.8546, -0.5480, 0.1685, -0.4069, 0.0000, 0.0000, 0.0000, 0.0000, 0.0000, 0.0000, 1.0000, -0.0001, 0.0010, 0.0025, 0.0000, 0.0000, 0.0000, 0.0000, 0.0000, 0.0000, 0.0000
0, 1.1450, 356, -0.4736, 0.2047, -0.8585, -0.2082, -0.1396, 0.3409, 0.0000, 0.0000, 0.0000, 0.0000, 0.0000, 0.0000, 1.0000, -0.0001, 0.0010, 0.0025, 0.0000, 0.0000, 0.0000, 0.0000, 0.0000, 0.0000, 0.0000
0, 1.1475, 357, -0.4858, 0.2005, -0.8700, -0.3431, -0.0851, 0.0024, 0.0000, 0.0000, 0.0000, 0.0000, 0.0000, 0.0000, 1.0000, -0.0001, 0.0011, 0.0025, 0.0000, 0.0000, 0.0000, 0.0000, 0.0000, 0.0000, 0.0000
0, 1.1525, 358, -0.4858, 0.2043, -0.8739, -0.0894, 0.3908, -0.3529, 0.0000, 0.0000, 0.0000, 0.0000, 0.0000, 0.0000, 1.0000, -0.0000, 0.0011, 0.0025, 0.0000, 0.0000, 0.0000, 0.0000, 0.0000, 0.0000, 0.0000
0, 1.1575, 359, -0.4777, 0.1848, -0.8737, 0.0525, 0.0752, 0.3990, 0.0000, 0.0000, 0.0000, 0.0000, 0.0000, 0.0000, 1.0000, -0.0001, 0.0011, 0.0026, 0.0000, 0.0000, 0.0000, 0.0000, 0.0000, 0.0000, 0.0000
0, 1.1600, 360, -0.4738, 0.2044, -0.8700, -0.5528, 0.4395, -0.4126, 0.0000, 0.0000, 0.0000, 0.0000, 0.0000, 0.0000, 1.0000, -0.0001, 0.0010, 0.0026, 0.0000, 0.0000, 0.0000, 0.0000, 0.0000, 0.0000, 0.0000
0, 1.1625, 361, -0.4775, 0.2009, -0.8508, -0.1550, 0.3900, -0.2836, 0.0000, 0.0000, 0.0000, 0.0000, 0.0000, 0.0000, 1.0000, -0.0001, 0.0011, 0.0026, 0.0000, 0.0000, 0.0000, 0.0000, 0.0000, 0.0000, 0.0000
0, 1.1650, 362, -0.4617, 0.2085, -0.8624, -0.4742, -0.1595, -0.0613, 0.0000, 0.0000, 0.0000, 0.0000, 0.0000, 0.0000, 1.0000, -0.0001, 0.0010, 0.0026, 0.0000, 0.0000, 0.0000, 0.0000, 0.0000, 0.0000, 0.0000
0, 1.1675, 363, -0.4658, 0.2163, -0.8663, -0.0765, -0.3561, -0.4053, 0.0000, 0.0000, 0.0000, 0.0000, 0.0000, 0.0000, 1.0000, 0.0000, 0.0009, 0.0026, 0.0000, 0.0000, 0.0000, 0.0000, 0.0000, 0.0000, 0.0000
0, 1.1700, 364, -0.4895, 0.2087, -0.8509, 0.2625, -0.5949, 0.4090, 0.0000, 0.0000, 0.0000, 0.0000, 0.0000, 0.0000, 1.0000, 0.0001, 0.0010, 0.0026, 0.0000, 0.0000, 0.0000, 0.0000, 0.0000, 0.0000, 0.0000
0, 1.1725, 365, -0.4817, 0.2202, -0.8625, -0.5441, 0.1867, 0.3407, 0.0000, 0.0000, 0.0000, 0.0000, 0.0000, 0.0000, 1.0000, 0.0001, 0.0010, 0.0025, 0.0000, 0.0000, 0.0000, 0.0000, 0.0000, 0.0000, 0.0000
0, 1.1750, 366, -0.4818, 0.2123, -0.8663, -0.1405, -0.2760, 0.2064, 0.0000, 0.0000, 0.0000, 0.0000, 0.0000, 0.0000, 1.0000, 0.0002, 0.0011, 0.0025, 0.0000, 0.0000, 0.0000, 0.0000, 0.0000, 0.0000, 0.0000
0, 1.1775, 367, -0.4857, 0.2045, -0.8662, 0.5816, 0.0274, 0.3893, 0.0000, 0.0000, 0.0000, 0.0000, 0.0000, 0.0000, 1.0000, 0.0002, 0.0011, 0.0025, 0.0000, 0.0000, 0.0000, 0.0000, 0.0000, 0.0000, 0.0000
0, 1.1875, 368, -0.4696, 0.2008, -0.8585, -0.0826, 0.2025, 0.2630, 0.0000, 0.0000, 0.0000, 0.0000, 0.0000, 0.0000, 1.0000, 0.0002, 0.0009, 0.0025, 0.0000, 0.0000, 0.0000, 0.0000, 0.0000, 0.0000, 0.0000
0, 1.1900, 369, -0.4658, 0.2006, -0.8700, -0.5418, -0.2430, -0.6022, 0.0000, 0.0000, 0.0000, 0.0000, 0.0000, 0.0000, 1.0000, 0.0002, 0.0009, 0.0025, 0.0000, 0.0000, 0.0000, 0.0000, 0.0000, 0.0000, 0.0000
0, 1.1975, 370, -0.4615, 0.1970, -0.8546, -0.3405, -0.1463, 0.2757, 0.0000, 0.0000, 0.0000, 0.0000, 0.0000, 0.0000, 1.0000, 0.0001, 0.0004, 0.0027, 0.0000, 0.0000, 0.0000, 0.0000, 0.0000, 0.0000, 0.0000
0, 1.2000, 371, -0.4776, 0.2126, -0.8547, -0.5419, -0.0232, 0.0731, 0.0000, 0.0000, 0.0000, 0.0000, 0.0000, 0.0000, 1.0000, 0.0002, 0.0005, 0.0027, 0.0000, 0.0000, 0.0000, 0.0000, 0.0000, 0.0000, 0.0000
0, 1.2025, 372, -0.4819, 0.2083, -0.8739, 0.0543, -0.2834, -0.4095, 0.0000, 0.0000, 0.0000, 0.0000, 0.0000, 0.0000, 1.0000, 0.0002, 0.0005, 0.0027, 0.0000, 0.0000, 0.0000, 0.0000, 0.0000, 0.0000, 0.0000
0, 1.2050, 373, -0.4577, 0.1967, -0.8661, -0.2121, -0.1578, -0.4067, 0.0000, 0.0000, 0.0000, 0.0000, 0.0000, 0.0000, 1.0000, 0.0002, 0.0004, 0.0027, 0.0000, 0.0000, 0.0000, 0.0000, 0.0000, 0.0000, 0.0000
0, 1.2075, 374, -0.4657, 0.2006, -0.8662, -0.0779, -0.3627, -0.6771, 0.0000, 0.0000, 0.0000, 0.0000, 0.0000, 0.0000, 1.0000, 0.0002, 0.0004, 0.0027, 0.0000, 0.0000, 0.0000, 0.0000, 0.0000, 0.0000, 0.0000
0, 1.2100, 375, -0.4735, 0.1969, -0.8546, 0.1869, -0.4222, -0.7492, 0.0000, 0.0000, 0.0000, 0.0000, 0.0000, 0.0000, 1.0000, 0.0001, 0.0004, 0.0027, 0.0000, 0.0000, 0.0000, 0.0000, 0.0000, 0.0000, 0.0000
0, 1.2125, 376, -0.4659, 0.2003, -0.8815, 0.1832, 0.0009, -0.0781, 0.0000, 0.0000, 0.0000, 0.0000, 0.0000, 0.0000, 1.0000, 0.0001, 0.0003, 0.0027, 0.0000, 0.0000, 0.0000, 0.0000, 0.0000, 0.0000, 0.0000
0, 1.2150, 377, -0.4776, 0.2007, -0.8585, 0.3874, -0.2561, 0.1952, 0.0000, 0.0000, 0.0000, 0.0000, 0.0000, 0.0000, 1.0000, 0.0001, 0.0003, 0.0027, 0.0000, 0.0000, 0.0000, 0.0000, 0.0000, 0.0000, 0.0000
0, 1.2175, 378, -0.4737, 0.2045, -0.8662, 0.3180, 0.0191, 0.4628, 0.0000, 0.0000, 0.0000, 0.0000, 0.0000, 0.0000, 1.0000, 0.0001, 0.0003, 0.0027, 0.0000, 0.0000, 0.0000, 0.0000, 0.0000, 0.0000, 0.0000
0, 1.2200, 379, -0.4818, 0.1965, -0.8738, -0.0806, -0.0818, -0.2750, 0.0000, 0.0000, 0.0000, 0.0000, 0.0000, 0.0000, 1.0000, 0.0000, 0.0003, 0.0027, 0.0000, 0.0000, 0.0000, 0.0000, 0.0000, 0.0000, 0.0000
0, 1.2250, 380, -0.4778, 0.2201, -0.8702, 0.4539, -0.3246, 0.0594, 0.0000, 0.0000, 0.0000, 0.0000, 0.0000, 0.0000, 1.0000, 0.0001, 0.0003, 0.0027, 0.0000, 0.0000, 0.0000, 0.0000, 0.0000, 0.0000, 0.0000
0, 1.2275, 381, -0.4697, 0.2006, -0.8662, -0.1382, -0.3388, 0.4117, 0.0000, 0.0000, 0.0000, 0.0000, 0.0000, 0.0000, 1.0000, 0.0001, 0.0003, 0.0027, 0.0000, 0.0000, 0.0000, 0.0000, 0.0000, 0.0000, 0.0000
0, 1.2300, 382, -0.4736, 0.1968, -0.8623, -0.5336, -0.4248, 0.2855, 0.0000, 0.0000, 0.0000, 0.0000, 0.0000, 0.0000, 1.0000, 0.0001, 0.0003, 0.0027, 0.0000, 0.0000, 0.0000, 0.0000, 0.0000, 0.0000, 0.0000
0, 1.2325, 383, -0.4697, 0.1966, -0.8700, 0.2485, 0.1471, 0.2575, 0.0000, 0.0000, 0.0000, 0.0000, 0.0000, 0.0000, 1.0000, 0.0000, 0.0002, 0.0027, 0.0000, 0.0000, 0.0000, 0.0000, 0.0000, 0.0000, 0.0000
0, 1.2350, 384, -0.4698, 0.2123, -0.8701, -0.3454, -0.0223, -0.2029, 0.0000, 0.0000, 0.0000, 0.0000, 0.0000, 0.0000, 1.0000, 0.0001, 0.0002, 0.0027, 0.0000, 0.0000, 0.0000, 0.0000, 0.0000, 0.0000, 0.0000
0, 1.2375, 385, -0.4858, 0.2043, -0.8739, -0.8766, 0.0156, -0.6010, 0.0000, 0.0000, 0.0000, 0.0000, 0.0000, 0.0000, 1.0000, 0.0001, 0.0002, 0.0028, 0.0000, 0.0000, 0.0000, 0.0000, 0.0000, 0.0000, 0.0000
0, 1.2400, 386, -0.4859, 0.2003, -0.8815, -0.4759, -0.3876, -1.0765, 0.0000, 0.0000, 0.0000, 0.0000, 0.0000, 0.0000, 1.0000, 0.0001, 0.0002, 0.0028, 0.0000, 0.0000, 0.0000, 0.0000, 0.0000, 0.0000, 0.0000
0, 1.2450, 387, -0.4736, 0.2047, -0.8585, -1.2691, -0.0572, -0.1834, 0.0000, 0.0000, 0.0000, 0.0000, 0.0000, 0.0000, 1.0000, 0.0001, 0.0002, 0.0028, 0.0000, 0.0000, 0.0000, 0.0000, 0.0000, 0.0000, 0.0000
0, 1.2475, 388, -0.4697, 0.2124, -0.8624, -0.1435, -0.2165, -0.1349, 0.0000, 0.0000, 0.0000, 0.0000, 0.0000, 0.0000, 1.0000, 0.0002, 0.0002, 0.0029, 0.0000, 0.0000, 0.0000, 0.0000, 0.0000, 0.0000, 0.0000
0, 1.2525, 389, -0.4819, 0.1964, -0.8815, 0.3905, -0.3883, 0.3340, 0.0000, 0.0000, 0.0000, 0.0000, 0.0000, 0.0000, 1.0000, 0.0000, 0.0002, 0.0028, 0.0000, 0.0000, 0.0000, 0.0000, 0.0000, 0.0000, 0.0000
0, 1.2550, 390, -0.4817, 0.2124, -0.8624, 0.5242, -0.5221, 0.1982, 0.0000, 0.0000, 0.0000, 0.0000, 0.0000, 0.0000, 1.0000, 0.0001, 0.0002, 0.0028, 0.0000, 0.0000, 0.0000, 0.0000, 0.0000, 0.0000, 0.0000
0, 1.2600, 391, -0.4857, 0.2045, -0.8662, -0.2193, 0.2487, -0.4153, 0.0000, 0.0000, 0.0000, 0.0000, 0.0000, 0.0000, 1.0000, 0.0001, 0.0002, 0.0028, 0.0000, 0.0000, 0.0000, 0.0000, 0.0000, 0.0000, 0.0000
0, 1.2625, 392, -0.4657, 0.2124, -0.8624, -0.6168, 0.5197, 0.1991, 0.0000, 0.0000, 0.0000, 0.0000, 0.0000, 0.0000, 1.0000, 0.0001, 0.0002, 0.0028, 0.0000, 0.0000, 0.0000, 0.0000, 0.0000, 0.0000, 0.0000
0, 1.2675, 393, -0.4659, 0.2122, -0.8740, -0.4060, -0.3669, -0.3303, 0.0000, 0.0000, 0.0000, 0.0000, 0.0000, 0.0000, 1.0000, 0.0002, 0.0000, 0.0029, 0.0000, 0.0000, 0.0000, 0.0000, 0.0000, 0.0000, 0.0000
0, 1.2700, 394, -0.4819, 0.2121, -0.8778, -0.5411, -0.0926, 0.0066, 0.0000, 0.0000, 0.0000, 0.0000, 0.0000, 0.0000, 1.0000, 0.0003, 0.0000, 0.0029, 0.0000, 0.0000, 0.0000, 0.0000, 0.0000, 0.0000, 0.0000
0, 1.2725, 395, -0.4858, 0.2043, -0.8739, -0.4780, -0.0306, -0.3360, 0.0000, 0.0000, 0.0000, 0.0000, 0.0000, 0.0000, 1.0000, 0.0003, 0.0001, 0.0029, 0.0000, 0.0000, 0.0000, 0.0000, 0.0000, 0.0000, 0.0000
0, 1.2750, 396, -0.4737, 0.2045, -0.8662, -0.3441, -0.3099, -0.8768, 0.0000, 0.0000, 0.0000, 0.0000, 0.0000, 0.0000, 1.0000, 0.0003, 0.0001, 0.0029, 0.0000, 0.0000, 0.0000, 0.0000, 0.0000, 0.0000, 0.0000
0, 1.2775, 397, -0.4775, 0.2087, -0.8509, -0.4082, -0.1570, -0.0627, 0.0000, 0.0000, 0.0000, 0.0000, 0.0000, 0.0000, 1.0000, 0.0004, 0.0001, 0.0029, 0.0000, 0.0000, 0.0000, 0.0000, 0.0000, 0.0000, 0.0000
0, 1.2800, 398, -0.4657, 0.2006, -0.8662, -0.4782, 0.0421, -0.1336, 0.0000, 0.0000, 0.0000, 0.0000, 0.0000, 0.0000, 1.0000, 0.0004, 0.0001, 0.0029, 0.0000, 0.0000, 0.0000, 0.0000, 0.0000, 0.0000, 0.0000
0, 1.2825, 399, -0.4819, 0.2003, -0.8777, 0.3179, -0.1280, -0.0101, 0.0000, 0.0000, 0.0000, 0.0000, 0.0000, 0.0000, 1.0000, 0.0003, 0.0001, 0.0029, 0.0000, 0.0000, 0.0000, 0.0000, 0.0000, 0.0000, 0.0000
0, 1.2850, 400, -0.4738, 0.1808, -0.8775, 0.1899, -0.1148, 0.7403, 0.0000, 0.0000, 0.0000, 0.0000, 0.0000, 0.0000, 1.0000, 0.0002, 0.0001, 0.0029, 0.0000, 0.0000, 0.0000, 0.0000, 0.0000, 0.0000, 0.0000
0, 1.2875, 401, -0.4818, 0.1886, -0.8776, 0.3191, -0.1958, -0.0087, 0.0000, 0.0000, 0.0000, 0.0000, 0.0000, 0.0000, 1.0000, 0.0001, 0.0001, 0.0029, 0.0000, 0.0000, 0.0000, 0.0000, 0.0000, 0.0000, 0.0000
0, 1.2900, 402, -0.4776, 0.2007, -0.8585, 0.1957, -0.5279, 0.4770, 0.0000, 0.0000, 0.0000, 0.0000, 0.0000, 0.0000, 1.0000, 0.0001, 0.0001, 0.0028, 0.0000, 0.0000, 0.0000, 0.0000, 0.0000, 0.0000, 0.0000
0, 1.2925, 403, -0.4745, 0.2035, -0.9162, -0.2739, -0.2876, -0.0627, 0.0000, 0.0000, 0.0000, 0.0000, 0.0000, 0.0000, 1.0000, 0.0001, 0.0001, 0.0029, 0.0000, 0.0000, 0.0000, 0.0000, 0.0000, 0.0000, 0.0000
0, 1.2950, 404, -0.4816, 0.2007, -0.8585, -0.1431, -0.2148, -0.0669, 0.0000, 0.0000, 0.0000, 0.0000, 0.0000, 0.0000, 1.0000, 0.0001, 0.0002, 0.0028, 0.0000, 0.0000, 0.0000, 0.0000, 0.0000, 0.0000, 0.0000
0, 1.2975, 405, -0.4739, 0.2003, -0.8815, 0.4528, -0.3296, -0.1445, 0.0000, 0.0000, 0.0000, 0.0000, 0.0000, 0.0000, 1.0000, 0.0001, 0.0002, 0.0028, 0.0000, 0.0000, 0.0000, 0.0000, 0.0000, 0.0000, 0.0000
0, 1.3000, 406, -0.4776, 0.2125, -0.8586, 0.1872, -0.2007, -0.0059, 0.0000, 0.0000, 0.0000, 0.0000, 0.0000, 0.0000, 1.0000, 0.0002, 0.0002, 0.0028, 0.0000, 0.0000, 0.0000, 0.0000, 0.0000, 0.0000, 0.0000
0, 1.3025, 407, -0.4659, 0.2082, -0.8778, 0.0662, -0.8882, -0.1928, 0.0000, 0.0000, 0.0000, 0.0000, 0.0000, 0.0000, 1.0000, 0.0002, 0.0002, 0.0029, 0.0000, 0.0000, 0.0000, 0.0000, 0.0000, 0.0000, 0.0000
0, 1.3050, 408, -0.4817, 0.2124, -0.8624, -0.0126, -0.2165, -0.3415, 0.0000, 0.0000, 0.0000, 0.0000, 0.0000, 0.0000, 1.0000, 0.0003, 0.0002, 0.0029, 0.0000, 0.0000, 0.0000, 0.0000, 0.0000, 0.0000, 0.0000
0, 1.3075, 409, -0.4816, 0.2046, -0.8585, 0.1803, 0.2074, 0.0535, 0.0000, 0.0000, 0.0000, 0.0000, 0.0000, 0.0000, 1.0000, 0.0003, 0.0003, 0.0029, 0.0000, 0.0000, 0.0000, 0.0000, 0.0000, 0.0000, 0.0000
0, 1.3175, 410, -0.4778, 0.2123, -0.8701, -0.0066, -0.3354, 0.3410, 0.0000, 0.0000, 0.0000, 0.0000, 0.0000, 0.0000, 1.0000, 0.0004, 0.0004, 0.0028, 0.0000, 0.0000, 0.0000, 0.0000, 0.0000, 0.0000, 0.0000
0, 1.3200, 411, -0.4738, 0.2005, -0.8700, 0.2476, 0.2893, 0.5265, 0.0000, 0.0000, 0.0000, 0.0000, 0.0000, 0.0000, 1.0000, 0.0004, 0.0004, 0.0028, 0.0000, 0.0000, 0.0000, 0.0000, 0.0000, 0.0000, 0.0000
0, 1.3250, 412, -0.4776, 0.2007, -0.8623, -0.6758, 0.0363, -0.0614, 0.0000, 0.0000, 0.0000, 0.0000, 0.0000, 0.0000, 1.0000, 0.0004, 0.0004, 0.0028, 0.0000, 0.0000, 0.0000, 0.0000, 0.0000, 0.0000, 0.0000
0, 1.3275, 413, -0.4618, 0.2045, -0.8700, -0.2138, -0.0190, -0.2737, 0.0000, 0.0000, 0.0000, 0.0000, 0.0000, 0.0000, 1.0000, 0.0004, 0.0003, 0.0028, 0.0000, 0.0000, 0.0000, 0.0000, 0.0000, 0.0000, 0.0000
0, 1.3300, 414, -0.4738, 0.2044, -0.8739, -0.2603, -1.0312, 0.0209, 0.0000, 0.0000, 0.0000, 0.0000, 0.0000, 0.0000, 1.0000, 0.0004, 0.0003, 0.0028, 0.0000, 0.0000, 0.0000, 0.0000, 0.0000, 0.0000, 0.0000
0, 1.3325, 415, -0.4817, 0.1967, -0.8661, -0.2130, -0.2355, -0.8131, 0.0000, 0.0000, 0.0000, 0.0000, 0.0000, 0.0000, 1.0000, 0.0004, 0.0003, 0.0028, 0.0000, 0.0000, 0.0000, 0.0000, 0.0000, 0.0000, 0.0000
0, 1.3350, 416, -0.4697, 0.2006, -0.8662, 0.4422, 0.5017, 0.5860, 0.0000, 0.0000, 0.0000, 0.0000, 0.0000, 0.0000, 1.0000, 0.0004, 0.0003, 0.0028, 0.0000, 0.0000, 0.0000, 0.0000, 0.0000, 0.0000, 0.0000
0, 1.3375, 417, -0.4696, 0.2047, -0.8585, 0.0502, 0.1380, 0.1937, 0.0000, 0.0000, 0.0000, 0.0000, 0.0000, 0.0000, 1.0000, 0.0004, 0.0003, 0.0028, 0.0000, 0.0000, 0.0000, 0.0000, 0.0000, 0.0000, 0.0000
0, 1.3400, 418, -0.4776, 0.1967, -0.8623, 0.1872, -0.2007, -0.0059, 0.0000, 0.0000, 0.0000, 0.0000, 0.0000, 0.0000, 1.0000, 0.0004, 0.0003, 0.0028, 0.0000, 0.0000, 0.0000, 0.0000, 0.0000, 0.0000, 0.0000
0, 1.3425, 419, -0.4656, 0.1929, -0.8622, 0.2417, 0.5553, 0.3169, 0.0000, 0.0000, 0.0000, 0.0000, 0.0000, 0.0000, 1.0000, 0.0003, 0.0003, 0.0028, 0.0000, 0.0000, 0.0000, 0.0000, 0.0000, 0.0000, 0.0000
0, 1.3450, 420, -0.4857, 0.1927, -0.8699, 0.1183, 0.0034, 0.1272, 0.0000, 0.0000, 0.0000, 0.0000, 0.0000, 0.0000, 1.0000, 0.0002, 0.0004, 0.0028, 0.0000, 0.0000, 0.0000, 0.0000, 0.0000, 0.0000, 0.0000
0, 1.3475, 421, -0.4657, 0.2045, -0.8662, 0.0587, -0.3363, 0.2036, 0.0000, 0.0000, 0.0000, 0.0000, 0.0000, 0.0000, 1.0000, 0.0003, 0.0003, 0.0028, 0.0000, 0.0000, 0.0000, 0.0000, 0.0000, 0.0000, 0.0000
0, 1.3500, 422, -0.4854, 0.1892, -0.8468, -0.4722, -0.2967, -0.1265, 0.0000, 0.0000, 0.0000, 0.0000, 0.0000, 0.0000, 1.0000, 0.0002, 0.0004, 0.0028, 0.0000, 0.0000, 0.0000, 0.0000, 0.0000, 0.0000, 0.0000
0, 1.3525, 423, -0.4777, 0.1966, -0.8700, -0.4146, 0.1801, -0.1378, 0.0000, 0.0000, 0.0000, 0.0000, 0.0000, 0.0000, 1.0000, 0.0002, 0.0004, 0.0028, 0.0000, 0.0000, 0.0000, 0.0000, 0.0000, 0.0000, 0.0000
0, 1.3575, 424, -0.4819, 0.1964, -0.8815, -0.2859, 0.3900, -0.0769, 0.0000, 0.0000, 0.0000, 0.0000, 0.0000, 0.0000, 1.0000, 0.0002, 0.0004, 0.0028, 0.0000, 0.0000, 0.0000, 0.0000, 0.0000, 0.0000, 0.0000
0, 1.3600, 425, -0.4818, 0.2162, -0.8702, 0.7094, 0.3067, 0.5167, 0.0000, 0.0000, 0.0000, 0.0000, 0.0000, 0.0000, 1.0000, 0.0002, 0.0004, 0.0028, 0.0000, 0.0000, 0.0000, 0.0000, 0.0000, 0.0000, 0.0000
0, 1.3675, 426, -0.4656, 0.2008, -0.8585, -0.0140, -0.0033, 0.0620, 0.0000, 0.0000, 0.0000, 0.0000, 0.0000, 0.0000, 1.0000, 0.0002, 0.0003, 0.0028, 0.0000, 0.0000, 0.0000, 0.0000, 0.0000, 0.0000, 0.0000
0, 1.3700, 427, -0.4737, 0.2006, -0.8662, 0.5126, 0.0844, 0.0494, 0.0000, 0.0000, 0.0000, 0.0000, 0.0000, 0.0000, 1.0000, 0.0002, 0.0003, 0.0028, 0.0000, 0.0000, 0.0000, 0.0000, 0.0000, 0.0000, 0.0000
0, 1.3725, 428, -0.4698, 0.2084, -0.8701, -0.0843, 0.3413, 0.3961, 0.0000, 0.0000, 0.0000, 0.0000, 0.0000, 0.0000, 1.0000, 0.0002, 0.0002, 0.0028, 0.0000, 0.0000, 0.0000, 0.0000, 0.0000, 0.0000, 0.0000
0, 1.3750, 429, -0.4777, 0.2006, -0.8662, -0.0111, -0.0628, 0.4032, 0.0000, 0.0000, 0.0000, 0.0000, 0.0000, 0.0000, 1.0000, 0.0002, 0.0003, 0.0028, 0.0000, 0.0000, 0.0000, 0.0000, 0.0000, 0.0000, 0.0000
0, 1.3775, 430, -0.4657, 0.2046, -0.8624, -0.0259, 0.7486, 0.3182, 0.0000, 0.0000, 0.0000, 0.0000, 0.0000, 0.0000, 1.0000, 0.0002, 0.0002, 0.0028, 0.0000, 0.0000, 0.0000, 0.0000, 0.0000, 0.0000, 0.0000
0, 1.3800, 431, -0.4697, 0.1889, -0.8660, 0.7056, 0.4356, 0.2420, 0.0000, 0.0000, 0.0000, 0.0000, 0.0000, 0.0000, 1.0000, 0.0002, 0.0002, 0.0027, 0.0000, 0.0000, 0.0000, 0.0000, 0.0000, 0.0000, 0.0000
0, 1.3825, 432, -0.4815, 0.1930, -0.8545, -0.0083, -0.1966, 0.4740, 0.0000, 0.0000, 0.0000, 0.0000, 0.0000, 0.0000, 1.0000, 0.0001, 0.0003, 0.0027, 0.0000, 0.0000, 0.0000, 0.0000, 0.0000, 0.0000, 0.0000
0, 1.3850, 433, -0.4777, 0.1967, -0.8661, -0.0685, -0.7593, -0.2608, 0.0000, 0.0000, 0.0000, 0.0000, 0.0000, 0.0000, 1.0000, 0.0001, 0.0003, 0.0027, 0.0000, 0.0000, 0.0000, 0.0000, 0.0000, 0.0000, 0.0000
0, 1.3875, 434, -0.4696, 0.1929, -0.8622, -0.6739, -0.0282, 0.0759, 0.0000, 0.0000, 0.0000, 0.0000, 0.0000, 0.0000, 1.0000, 0.0001, 0.0003, 0.0027, 0.0000, 0.0000, 0.0000, 0.0000, 0.0000, 0.0000, 0.0000
0, 1.3900, 435, -0.4817, 0.2085, -0.8624, 0.0424, 0.3214, -0.6262, 0.0000, 0.0000, 0.0000, 0.0000, 0.0000, 0.0000, 1.0000, 0.0001, 0.0003, 0.0027, 0.0000, 0.0000, 0.0000, 0.0000, 0.0000, 0.0000, 0.0000
0, 1.3950, 436, -0.4659, 0.1965, -0.8776, -0.5441, 0.1867, 0.3407, 0.0000, 0.0000, 0.0000, 0.0000, 0.0000, 0.0000, 1.0000, 0.0002, 0.0002, 0.0027, 0.0000, 0.0000, 0.0000, 0.0000, 0.0000, 0.0000, 0.0000
0, 1.3975, 437, -0.4897, 0.1966, -0.8661, -0.2773, -0.0099, 0.2035, 0.0000, 0.0000, 0.0000, 0.0000, 0.0000, 0.0000, 1.0000, 0.0001, 0.0003, 0.0027, 0.0000, 0.0000, 0.0000, 0.0000, 0.0000, 0.0000, 0.0000
0, 1.4025, 438, -0.4816, 0.2006, -0.8623, -0.2808, -0.0265, -0.4762, 0.0000, 0.0000, 0.0000, 0.0000, 0.0000, 0.0000, 1.0000, 0.0001, 0.0004, 0.0027, 0.0000, 0.0000, 0.0000, 0.0000, 0.0000, 0.0000, 0.0000
0, 1.4050, 439, -0.4818, 0.2043, -0.8739, -0.0106, -0.2809, -0.2042, 0.0000, 0.0000, 0.0000, 0.0000, 0.0000, 0.0000, 1.0000, 0.0001, 0.0004, 0.0027, 0.0000, 0.0000, 0.0000, 0.0000, 0.0000, 0.0000, 0.0000
0, 1.4100, 440, -0.4858, 0.2123, -0.8663, 0.1244, -0.1883, 0.6072, 0.0000, 0.0000, 0.0000, 0.0000, 0.0000, 0.0000, 1.0000, -0.0000, 0.0003, 0.0027, 0.0000, 0.0000, 0.0000, 0.0000, 0.0000, 0.0000, 0.0000
0, 1.4125, 441, -0.4656, 0.1968, -0.8623, -0.4123, 0.1173, 0.0675, 0.0000, 0.0000, 0.0000, 0.0000, 0.0000, 0.0000, 1.0000, -0.0000, 0.0003, 0.0027, 0.0000, 0.0000, 0.0000, 0.0000, 0.0000, 0.0000, 0.0000
0, 1.4150, 442, -0.4657, 0.2006, -0.8662, -0.0181, 0.0512, -0.4831, 0.0000, 0.0000, 0.0000, 0.0000, 0.0000, 0.0000, 1.0000, -0.0000, 0.0002, 0.0027, 0.0000, 0.0000, 0.0000, 0.0000, 0.0000, 0.0000, 0.0000
0, 1.4175, 443, -0.4736, 0.2008, -0.8585, 0.0506, 0.1397, 0.2616, 0.0000, 0.0000, 0.0000, 0.0000, 0.0000, 0.0000, 1.0000, -0.0000, 0.0003, 0.0027, 0.0000, 0.0000, 0.0000, 0.0000, 0.0000, 0.0000, 0.0000
0, 1.4200, 444, -0.4658, 0.2084, -0.8701, -0.0123, 0.0050, 0.4018, 0.0000, 0.0000, 0.0000, 0.0000, 0.0000, 0.0000, 1.0000, 0.0000, 0.0002, 0.0027, 0.0000, 0.0000, 0.0000, 0.0000, 0.0000, 0.0000, 0.0000
0, 1.4225, 445, -0.4777, 0.2045, -0.8662, 0.5003, 0.5405, -0.7081, 0.0000, 0.0000, 0.0000, 0.0000, 0.0000, 0.0000, 1.0000, 0.0000, 0.0002, 0.0027, 0.0000, 0.0000, 0.0000, 0.0000, 0.0000, 0.0000, 0.0000
0, 1.4250, 446, -0.4738, 0.2123, -0.8701, -0.0833, 0.1992, 0.1271, 0.0000, 0.0000, 0.0000, 0.0000, 0.0000, 0.0000, 1.0000, 0.0001, 0.0001, 0.0028, 0.0000, 0.0000, 0.0000, 0.0000, 0.0000, 0.0000, 0.0000
0, 1.4300, 447, -0.4814, 0.1931, -0.8469, 0.3853, -0.2660, -0.2125, 0.0000, 0.0000, 0.0000, 0.0000, 0.0000, 0.0000, 1.0000, 0.0001, 0.0004, 0.0027, 0.0000, 0.0000, 0.0000, 0.0000, 0.0000, 0.0000, 0.0000
0, 1.4325, 448, -0.4780, 0.2002, -0.8854, 0.3795, 0.2942, 0.5237, 0.0000, 0.0000, 0.0000, 0.0000, 0.0000, 0.0000, 1.0000, 0.0001, 0.0004, 0.0027, 0.0000, 0.0000, 0.0000, 0.0000, 0.0000, 0.0000, 0.0000
0, 1.4350, 449, -0.4658, 0.2044, -0.8739, 0.0580, -0.1925, 0.5406, 0.0000, 0.0000, 0.0000, 0.0000, 0.0000, 0.0000, 1.0000, 0.0001, 0.0003, 0.0027, 0.0000, 0.0000, 0.0000, 0.0000, 0.0000, 0.0000, 0.0000
0, 1.4375, 450, -0.4736, 0.1968, -0.8623, -0.0094, 0.0182, 0.9455, 0.0000, 0.0000, 0.0000, 0.0000, 0.0000, 0.0000, 1.0000, 0.0001, 0.0003, 0.0027, 0.0000, 0.0000, 0.0000, 0.0000, 0.0000, 0.0000, 0.0000
0, 1.4400, 451, -0.4696, 0.1969, -0.8584, 0.6442, 0.0877, -0.0213, 0.0000, 0.0000, 0.0000, 0.0000, 0.0000, 0.0000, 1.0000, 0.0001, 0.0003, 0.0027, 0.0000, 0.0000, 0.0000, 0.0000, 0.0000, 0.0000, 0.0000
0, 1.4425, 452, -0.4739, 0.2083, -0.8739, 0.3899, -0.2445, 0.6710, 0.0000, 0.0000, 0.0000, 0.0000, 0.0000, 0.0000, 1.0000, 0.0001, 0.0003, 0.0027, 0.0000, 0.0000, 0.0000, 0.0000, 0.0000, 0.0000, 0.0000
0, 1.4450, 453, -0.4819, 0.2043, -0.8777, 0.3210, -0.2602, 0.1287, 0.0000, 0.0000, 0.0000, 0.0000, 0.0000, 0.0000, 1.0000, 0.0001, 0.0003, 0.0027, 0.0000, 0.0000, 0.0000, 0.0000, 0.0000, 0.0000, 0.0000
0, 1.4475, 454, -0.4699, 0.2003, -0.8815, -0.5441, 0.1867, 0.3407, 0.0000, 0.0000, 0.0000, 0.0000, 0.0000, 0.0000, 1.0000, 0.0001, 0.0003, 0.0027, 0.0000, 0.0000, 0.0000, 0.0000, 0.0000, 0.0000, 0.0000
0, 1.4500, 455, -0.4816, 0.2046, -0.8585, -0.6097, -0.0339, -0.2653, 0.0000, 0.0000, 0.0000, 0.0000, 0.0000, 0.0000, 1.0000, 0.0001, 0.0003, 0.0027, 0.0000, 0.0000, 0.0000, 0.0000, 0.0000, 0.0000, 0.0000
0, 1.4525, 456, -0.4736, 0.2008, -0.8585, 0.3200, -0.2652, -0.0752, 0.0000, 0.0000, 0.0000, 0.0000, 0.0000, 0.0000, 1.0000, 0.0001, 0.0003, 0.0027, 0.0000, 0.0000, 0.0000, 0.0000, 0.0000, 0.0000, 0.0000
0, 1.4550, 457, -0.4737, 0.2084, -0.8662, 0.1885, -0.3412, -0.2069, 0.0000, 0.0000, 0.0000, 0.0000, 0.0000, 0.0000, 1.0000, 0.0002, 0.0003, 0.0027, 0.0000, 0.0000, 0.0000, 0.0000, 0.0000, 0.0000, 0.0000
0, 1.4575, 458, -0.4778, 0.2162, -0.8663, -0.2091, -0.2173, -0.0655, 0.0000, 0.0000, 0.0000, 0.0000, 0.0000, 0.0000, 1.0000, 0.0003, 0.0004, 0.0027, 0.0000, 0.0000, 0.0000, 0.0000, 0.0000, 0.0000, 0.0000
0, 1.4600, 459, -0.4658, 0.2045, -0.8700, 0.1824, 0.0703, -0.0116, 0.0000, 0.0000, 0.0000, 0.0000, 0.0000, 0.0000, 1.0000, 0.0003, 0.0002, 0.0027, 0.0000, 0.0000, 0.0000, 0.0000, 0.0000, 0.0000, 0.0000
0, 1.4650, 460, -0.4776, 0.2125, -0.8586, -0.3427, -0.0835, 0.0704, 0.0000, 0.0000, 0.0000, 0.0000, 0.0000, 0.0000, 1.0000, 0.0004, 0.0002, 0.0027, 0.0000, 0.0000, 0.0000, 0.0000, 0.0000, 0.0000, 0.0000
0, 1.4675, 461, -0.4698, 0.2162, -0.8702, 0.1851, -0.0636, 0.0592, 0.0000, 0.0000, 0.0000, 0.0000, 0.0000, 0.0000, 1.0000, 0.0005, 0.0001, 0.0027, 0.0000, 0.0000, 0.0000, 0.0000, 0.0000, 0.0000, 0.0000
0, 1.4775, 462, -0.4976, 0.2046, -0.8585, 0.4350, 0.7611, 0.1046, 0.0000, 0.0000, 0.0000, 0.0000, 0.0000, 0.0000, 1.0000, 0.0007, 0.0002, 0.0027, 0.0000, 0.0000, 0.0000, 0.0000, 0.0000, 0.0000, 0.0000
0, 1.4800, 463, -0.4855, 0.1969, -0.8546, 0.3147, 0.0769, 0.0536, 0.0000, 0.0000, 0.0000, 0.0000, 0.0000, 0.0000, 1.0000, 0.0006, 0.0003, 0.0027, 0.0000, 0.0000, 0.0000, 0.0000, 0.0000, 0.0000, 0.0000
0, 1.4875, 464, -0.4856, 0.2085, -0.8585, -0.4765, -0.0967, -0.2667, 0.0000, 0.0000, 0.0000, 0.0000, 0.0000, 0.0000, 1.0000, 0.0007, 0.0005, 0.0028, 0.0000, 0.0000, 0.0000, 0.0000, 0.0000, 0.0000, 0.0000
0, 1.4900, 465, -0.4817, 0.2085, -0.8624, -0.4088, -0.2331, -0.4011, 0.0000, 0.0000, 0.0000, 0.0000, 0.0000, 0.0000, 1.0000, 0.0007, 0.0005, 0.0028, 0.0000, 0.0000, 0.0000, 0.0000, 0.0000, 0.0000, 0.0000
0, 1.4925, 466, -0.4817, 0.2006, -0.8662, 0.2528, -0.1999, -0.0752, 0.0000, 0.0000, 0.0000, 0.0000, 0.0000, 0.0000, 1.0000, 0.0007, 0.0005, 0.0028, 0.0000, 0.0000, 0.0000, 0.0000, 0.0000, 0.0000, 0.0000
0, 1.4950, 467, -0.4816, 0.2086, -0.8547, 0.6487, -0.1850, -0.0836, 0.0000, 0.0000, 0.0000, 0.0000, 0.0000, 0.0000, 1.0000, 0.0007, 0.0006, 0.0028, 0.0000, 0.0000, 0.0000, 0.0000, 0.0000, 0.0000, 0.0000
0, 1.5000, 468, -0.4698, 0.2124, -0.8663, 0.3181, -0.0536, 0.2603, 0.0000, 0.0000, 0.0000, 0.0000, 0.0000, 0.0000, 1.0000, 0.0009, 0.0006, 0.0027, 0.0000, 0.0000, 0.0000, 0.0000, 0.0000, 0.0000, 0.0000
0, 1.5025, 469, -0.4697, 0.2085, -0.8624, -0.4148, 0.2528, 0.0646, 0.0000, 0.0000, 0.0000, 0.0000, 0.0000, 0.0000, 1.0000, 0.0009, 0.0005, 0.0027, 0.0000, 0.0000, 0.0000, 0.0000, 0.0000, 0.0000, 0.0000
0, 1.5050, 470, -0.4616, 0.2007, -0.8623, 0.1176, 0.0000, -0.0088, 0.0000, 0.0000, 0.0000, 0.0000, 0.0000, 0.0000, 1.0000, 0.0009, 0.0003, 0.0027, 0.0000, 0.0000, 0.0000, 0.0000, 0.0000, 0.0000, 0.0000
0, 1.5100, 471, -0.4738, 0.1886, -0.8776, -0.4805, -0.0422, -0.8118, 0.0000, 0.0000, 0.0000, 0.0000, 0.0000, 0.0000, 1.0000, 0.0008, 0.0003, 0.0027, 0.0000, 0.0000, 0.0000, 0.0000, 0.0000, 0.0000, 0.0000
0, 1.5125, 472, -0.4695, 0.1890, -0.8583, -0.2134, -0.0174, -0.2057, 0.0000, 0.0000, 0.0000, 0.0000, 0.0000, 0.0000, 1.0000, 0.0007, 0.0003, 0.0027, 0.0000, 0.0000, 0.0000, 0.0000, 0.0000, 0.0000, 0.0000
0, 1.5150, 473, -0.4897, 0.1887, -0.8699, 0.1864, 0.0158, 0.5335, 0.0000, 0.0000, 0.0000, 0.0000, 0.0000, 0.0000, 1.0000, 0.0006, 0.0004, 0.0027, 0.0000, 0.0000, 0.0000, 0.0000, 0.0000, 0.0000, 0.0000
0, 1.5175, 474, -0.4656, 0.1890, -0.8622, -0.4053, -0.2165, 0.2785, 0.0000, 0.0000, 0.0000, 0.0000, 0.0000, 0.0000, 1.0000, 0.0006, 0.0003, 0.0027, 0.0000, 0.0000, 0.0000, 0.0000, 0.0000, 0.0000, 0.0000
0, 1.5200, 475, -0.4737, 0.2084, -0.8662, 0.1910, -0.3296, 0.2688, 0.0000, 0.0000, 0.0000, 0.0000, 0.0000, 0.0000, 1.0000, 0.0006, 0.0003, 0.0027, 0.0000, 0.0000, 0.0000, 0.0000, 0.0000, 0.0000, 0.0000
0, 1.5225, 476, -0.4937, 0.2044, -0.8662, -0.0187, 0.1950, -0.1462, 0.0000, 0.0000, 0.0000, 0.0000, 0.0000, 0.0000, 1.0000, 0.0006, 0.0005, 0.0027, 0.0000, 0.0000, 0.0000, 0.0000, 0.0000, 0.0000, 0.0000
0, 1.5250, 477, -0.4856, 0.2006, -0.8623, -0.6079, -0.0257, 0.0745, 0.0000, 0.0000, 0.0000, 0.0000, 0.0000, 0.0000, 1.0000, 0.0006, 0.0005, 0.0027, 0.0000, 0.0000, 0.0000, 0.0000, 0.0000, 0.0000, 0.0000
0, 1.5275, 478, -0.4778, 0.2004, -0.8738, -0.0074, -0.2660, 0.4075, 0.0000, 0.0000, 0.0000, 0.0000, 0.0000, 0.0000, 1.0000, 0.0006, 0.0005, 0.0027, 0.0000, 0.0000, 0.0000, 0.0000, 0.0000, 0.0000, 0.0000
0, 1.5300, 479, -0.4778, 0.2044, -0.8700, -0.1438, -0.2181, -0.2028, 0.0000, 0.0000, 0.0000, 0.0000, 0.0000, 0.0000, 1.0000, 0.0006, 0.0005, 0.0027, 0.0000, 0.0000, 0.0000, 0.0000, 0.0000, 0.0000, 0.0000
0, 1.5325, 480, -0.4898, 0.2043, -0.8739, -0.4705, -0.2157, 0.4158, 0.0000, 0.0000, 0.0000, 0.0000, 0.0000, 0.0000, 1.0000, 0.0006, 0.0005, 0.0027, 0.0000, 0.0000, 0.0000, 0.0000, 0.0000, 0.0000, 0.0000
0, 1.5350, 481, -0.4777, 0.2006, -0.8662, -0.1405, -0.2760, 0.2064, 0.0000, 0.0000, 0.0000, 0.0000, 0.0000, 0.0000, 1.0000, 0.0006, 0.0006, 0.0027, 0.0000, 0.0000, 0.0000, 0.0000, 0.0000, 0.0000, 0.0000
0, 1.5375, 482, -0.4739, 0.2042, -0.8816, -0.4039, -0.3570, 0.0775, 0.0000, 0.0000, 0.0000, 0.0000, 0.0000, 0.0000, 1.0000, 0.0006, 0.0005, 0.0027, 0.0000, 0.0000, 0.0000, 0.0000, 0.0000, 0.0000, 0.0000
0, 1.5400, 483, -0.4737, 0.2046, -0.8624, 0.4475, 0.0125, -0.0157, 0.0000, 0.0000, 0.0000, 0.0000, 0.0000, 0.0000, 1.0000, 0.0006, 0.0005, 0.0027, 0.0000, 0.0000, 0.0000, 0.0000, 0.0000, 0.0000, 0.0000
0, 1.5425, 484, -0.4816, 0.2007, -0.8585, 0.1860, -0.1330, -0.0073, 0.0000, 0.0000, 0.0000, 0.0000, 0.0000, 0.0000, 1.0000, 0.0006, 0.0006, 0.0027, 0.0000, 0.0000, 0.0000, 0.0000, 0.0000, 0.0000, 0.0000
0, 1.5475, 485, -0.4736, 0.2047, -0.8585, 0.3822, 0.0133, 0.1216, 0.0000, 0.0000, 0.0000, 0.0000, 0.0000, 0.0000, 1.0000, 0.0007, 0.0007, 0.0027, 0.0000, 0.0000, 0.0000, 0.0000, 0.0000, 0.0000, 0.0000
0, 1.5500, 486, -0.4698, 0.1966, -0.8738, 0.1245, -0.2611, 0.4047, 0.0000, 0.0000, 0.0000, 0.0000, 0.0000, 0.0000, 1.0000, 0.0006, 0.0007, 0.0027, 0.0000, 0.0000, 0.0000, 0.0000, 0.0000, 0.0000, 0.0000
0, 1.5550, 487, -0.4777, 0.2085, -0.8624, 0.1886, -0.1941, 0.2660, 0.0000, 0.0000, 0.0000, 0.0000, 0.0000, 0.0000, 1.0000, 0.0007, 0.0007, 0.0026, 0.0000, 0.0000, 0.0000, 0.0000, 0.0000, 0.0000, 0.0000
0, 1.5575, 488, -0.4775, 0.2048, -0.8508, -0.2788, 0.0562, 0.1341, 0.0000, 0.0000, 0.0000, 0.0000, 0.0000, 0.0000, 1.0000, 0.0008, 0.0008, 0.0026, 0.0000, 0.0000, 0.0000, 0.0000, 0.0000, 0.0000, 0.0000
0, 1.5600, 489, -0.4776, 0.2126, -0.8547, 0.0561, -0.2751, -0.0696, 0.0000, 0.0000, 0.0000, 0.0000, 0.0000, 0.0000, 1.0000, 0.0009, 0.0008, 0.0026, 0.0000, 0.0000, 0.0000, 0.0000, 0.0000, 0.0000, 0.0000
0, 1.5650, 490, -0.4857, 0.2124, -0.8624, 0.0600, -0.2569, 0.6780, 0.0000, 0.0000, 0.0000, 0.0000, 0.0000, 0.0000, 1.0000, 0.0009, 0.0009, 0.0026, 0.0000, 0.0000, 0.0000, 0.0000, 0.0000, 0.0000, 0.0000
0, 1.5675, 491, -0.4859, 0.2082, -0.8778, -0.4744, -0.2339, -0.3318, 0.0000, 0.0000, 0.0000, 0.0000, 0.0000, 0.0000, 1.0000, 0.0010, 0.0009, 0.0026, 0.0000, 0.0000, 0.0000, 0.0000, 0.0000, 0.0000, 0.0000
0, 1.5700, 492, -0.4777, 0.2242, -0.8587, -0.4148, 0.2528, 0.0646, 0.0000, 0.0000, 0.0000, 0.0000, 0.0000, 0.0000, 1.0000, 0.0011, 0.0009, 0.0026, 0.0000, 0.0000, 0.0000, 0.0000, 0.0000, 0.0000, 0.0000
0, 1.5725, 493, -0.4697, 0.2045, -0.8662, -0.6841, 0.4379, -0.2739, 0.0000, 0.0000, 0.0000, 0.0000, 0.0000, 0.0000, 1.0000, 0.0011, 0.0009, 0.0026, 0.0000, 0.0000, 0.0000, 0.0000, 0.0000, 0.0000, 0.0000
0, 1.5750, 494, -0.4817, 0.2045, -0.8662, 0.0478, 0.1264, -0.2821, 0.0000, 0.0000, 0.0000, 0.0000, 0.0000, 0.0000, 1.0000, 0.0011, 0.0009, 0.0026, 0.0000, 0.0000, 0.0000, 0.0000, 0.0000, 0.0000, 0.0000
0, 1.5775, 495, -0.4815, 0.1969, -0.8546, 0.4488, 0.0918, 0.4586, 0.0000, 0.0000, 0.0000, 0.0000, 0.0000, 0.0000, 1.0000, 0.0011, 0.0009, 0.0026, 0.0000, 0.0000, 0.0000, 0.0000, 0.0000, 0.0000, 0.0000
0, 1.5800, 496, -0.4735, 0.2008, -0.8546, 0.3858, -0.1900, 0.1259, 0.0000, 0.0000, 0.0000, 0.0000, 0.0000, 0.0000, 1.0000, 0.0011, 0.0010, 0.0026, 0.0000, 0.0000, 0.0000, 0.0000, 0.0000, 0.0000, 0.0000
0, 1.5825, 497, -0.4778, 0.2044, -0.8700, 0.5073, 0.4265, 0.1782, 0.0000, 0.0000, 0.0000, 0.0000, 0.0000, 0.0000, 1.0000, 0.0011, 0.0010, 0.0026, 0.0000, 0.0000, 0.0000, 0.0000, 0.0000, 0.0000, 0.0000
0, 1.5850, 498, -0.4736, 0.2047, -0.8585, 0.2361, 0.6760, -0.2976, 0.0000, 0.0000, 0.0000, 0.0000, 0.0000, 0.0000, 1.0000, 0.0011, 0.0009, 0.0026, 0.0000, 0.0000, 0.0000, 0.0000, 0.0000, 0.0000, 0.0000
0, 1.5875, 499, -0.4738, 0.2005, -0.8738, -0.4841, 0.5280, 0.3322, 0.0000, 0.0000, 0.0000, 0.0000, 0.0000, 0.0000, 1.0000, 0.0011, 0.0009, 0.0026, 0.0000, 0.0000, 0.0000, 0.0000, 0.0000, 0.0000, 0.0000
0, 1.5900, 500, -0.4937, 0.2005, -0.8661, -0.0795, 0.2901, 1.0771, 0.0000, 0.0000, 0.0000, 0.0000, 0.0000, 0.0000, 1.0000, 0.0011, 0.0009, 0.0026, 0.0000, 0.0000, 0.0000, 0.0000, 0.0000, 0.0000, 0.0000
0, 1.5925, 501, -0.4737, 0.2085, -0.8624, -0.0091, -0.1272, 0.5406, 0.0000, 0.0000, 0.0000, 0.0000, 0.0000, 0.0000, 1.0000, 0.0011, 0.0009, 0.0026, 0.0000, 0.0000, 0.0000, 0.0000, 0.0000, 0.0000, 0.0000
0, 1.5950, 502, -0.4698, 0.2124, -0.8663, -0.2059, -0.2024, 0.5462, 0.0000, 0.0000, 0.0000, 0.0000, 0.0000, 0.0000, 1.0000, 0.0011, 0.0009, 0.0026, 0.0000, 0.0000, 0.0000, 0.0000, 0.0000, 0.0000, 0.0000
0, 1.5975, 503, -0.4897, 0.1926, -0.8699, -0.2719, -0.2049, 0.5476, 0.0000, 0.0000, 0.0000, 0.0000, 0.0000, 0.0000, 1.0000, 0.0011, 0.0009, 0.0026, 0.0000, 0.0000, 0.0000, 0.0000, 0.0000, 0.0000, 0.0000
0, 1.6000, 504, -0.4739, 0.2083, -0.8739, -0.1391, -0.4164, 0.0053, 0.0000, 0.0000, 0.0000, 0.0000, 0.0000, 0.0000, 1.0000, 0.0011, 0.0009, 0.0026, 0.0000, 0.0000, 0.0000, 0.0000, 0.0000, 0.0000, 0.0000
0, 1.6025, 505, -0.4739, 0.1965, -0.8776, -0.3420, -0.3000, -0.4691, 0.0000, 0.0000, 0.0000, 0.0000, 0.0000, 0.0000, 1.0000, 0.0011, 0.0009, 0.0026, 0.0000, 0.0000, 0.0000, 0.0000, 0.0000, 0.0000, 0.0000
0, 1.6050, 506, -0.4779, 0.2004, -0.8777, -0.4782, 0.0421, -0.1336, 0.0000, 0.0000, 0.0000, 0.0000, 0.0000, 0.0000, 1.0000, 0.0011, 0.0009, 0.0026, 0.0000, 0.0000, 0.0000, 0.0000, 0.0000, 0.0000, 0.0000
0, 1.6075, 507, -0.4735, 0.1891, -0.8545, -0.0240, 0.5371, -0.0174, 0.0000, 0.0000, 0.0000, 0.0000, 0.0000, 0.0000, 1.0000, 0.0010, 0.0009, 0.0026, 0.0000, 0.0000, 0.0000, 0.0000, 0.0000, 0.0000, 0.0000
0, 1.6125, 508, -0.4740, 0.2002, -0.8854, -0.4078, -0.0083, 0.4781, 0.0000, 0.0000, 0.0000, 0.0000, 0.0000, 0.0000, 1.0000, 0.0009, 0.0008, 0.0026, 0.0000, 0.0000, 0.0000, 0.0000, 0.0000, 0.0000, 0.0000
0, 1.6150, 509, -0.4778, 0.2005, -0.8700, 0.1114, 0.4115, 0.1866, 0.0000, 0.0000, 0.0000, 0.0000, 0.0000, 0.0000, 1.0000, 0.0009, 0.0007, 0.0026, 0.0000, 0.0000, 0.0000, 0.0000, 0.0000, 0.0000, 0.0000
0, 1.6175, 510, -0.4697, 0.2085, -0.8624, -0.2923, 0.7271, -0.1520, 0.0000, 0.0000, 0.0000, 0.0000, 0.0000, 0.0000, 1.0000, 0.0009, 0.0007, 0.0026, 0.0000, 0.0000, 0.0000, 0.0000, 0.0000, 0.0000, 0.0000
0, 1.6200, 511, -0.4578, 0.2281, -0.8664, 0.1040, 0.7437, -0.0924, 0.0000, 0.0000, 0.0000, 0.0000, 0.0000, 0.0000, 1.0000, 0.0010, 0.0006, 0.0026, 0.0000, 0.0000, 0.0000, 0.0000, 0.0000, 0.0000, 0.0000
0, 1.6225, 512, -0.4697, 0.2085, -0.8624, -0.2164, 0.2619, 0.1284, 0.0000, 0.0000, 0.0000, 0.0000, 0.0000, 0.0000, 1.0000, 0.0011, 0.0006, 0.0026, 0.0000, 0.0000, 0.0000, 0.0000, 0.0000, 0.0000, 0.0000
0, 1.6275, 513, -0.4699, 0.2122, -0.8740, 0.3736, 0.5603, 0.3141, 0.0000, 0.0000, 0.0000, 0.0000, 0.0000, 0.0000, 1.0000, 0.0012, 0.0005, 0.0025, 0.0000, 0.0000, 0.0000, 0.0000, 0.0000, 0.0000, 0.0000
0, 1.6300, 514, -0.4697, 0.2006, -0.8662, -0.5434, 0.1900, 0.4766, 0.0000, 0.0000, 0.0000, 0.0000, 0.0000, 0.0000, 1.0000, 0.0012, 0.0005, 0.0025, 0.0000, 0.0000, 0.0000, 0.0000, 0.0000, 0.0000, 0.0000
0, 1.6325, 515, -0.4694, 0.2128, -0.8432, 0.1880, -0.0503, 0.6029, 0.0000, 0.0000, 0.0000, 0.0000, 0.0000, 0.0000, 1.0000, 0.0012, 0.0005, 0.0025, 0.0000, 0.0000, 0.0000, 0.0000, 0.0000, 0.0000, 0.0000
0, 1.6350, 516, -0.4698, 0.1966, -0.8738, -0.0105, -0.3536, -0.4066, 0.0000, 0.0000, 0.0000, 0.0000, 0.0000, 0.0000, 1.0000, 0.0012, 0.0005, 0.0025, 0.0000, 0.0000, 0.0000, 0.0000, 0.0000, 0.0000, 0.0000
0, 1.6375, 517, -0.4777, 0.2045, -0.8662, 0.1786, -0.0206, -0.9616, 0.0000, 0.0000, 0.0000, 0.0000, 0.0000, 0.0000, 1.0000, 0.0012, 0.0005, 0.0025, 0.0000, 0.0000, 0.0000, 0.0000, 0.0000, 0.0000, 0.0000
0, 1.6400, 518, -0.4738, 0.2123, -0.8701, -0.5423, -0.0248, 0.0052, 0.0000, 0.0000, 0.0000, 0.0000, 0.0000, 0.0000, 1.0000, 0.0012, 0.0005, 0.0025, 0.0000, 0.0000, 0.0000, 0.0000, 0.0000, 0.0000, 0.0000
0, 1.6425, 519, -0.4737, 0.2046, -0.8624, -0.7452, 0.1643, -0.2668, 0.0000, 0.0000, 0.0000, 0.0000, 0.0000, 0.0000, 1.0000, 0.0012, 0.0005, 0.0025, 0.0000, 0.0000, 0.0000, 0.0000, 0.0000, 0.0000, 0.0000
0, 1.6450, 520, -0.4780, 0.2080, -0.8854, -0.7445, 0.3147, 0.3420, 0.0000, 0.0000, 0.0000, 0.0000, 0.0000, 0.0000, 1.0000, 0.0013, 0.0004, 0.0025, 0.0000, 0.0000, 0.0000, 0.0000, 0.0000, 0.0000, 0.0000
0, 1.6475, 521, -0.4779, 0.2082, -0.8778, -0.4785, 0.0404, -0.2015, 0.0000, 0.0000, 0.0000, 0.0000, 0.0000, 0.0000, 1.0000, 0.0013, 0.0004, 0.0025, 0.0000, 0.0000, 0.0000, 0.0000, 0.0000, 0.0000, 0.0000
0, 1.6500, 522, -0.4737, 0.2006, -0.8662, -0.4756, -0.1661, -0.3332, 0.0000, 0.0000, 0.0000, 0.0000, 0.0000, 0.0000, 1.0000, 0.0013, 0.0004, 0.0026, 0.0000, 0.0000, 0.0000, 0.0000, 0.0000, 0.0000, 0.0000
0, 1.6525, 523, -0.4735, 0.1930, -0.8545, -0.6082, -0.0273, 0.0066, 0.0000, 0.0000, 0.0000, 0.0000, 0.0000, 0.0000, 1.0000, 0.0012, 0.0004, 0.0026, 0.0000, 0.0000, 0.0000, 0.0000, 0.0000, 0.0000, 0.0000
0, 1.6550, 524, -0.4778, 0.1925, -0.8776, -0.4061, -0.1471, 0.3450, 0.0000, 0.0000, 0.0000, 0.0000, 0.0000, 0.0000, 1.0000, 0.0012, 0.0004, 0.0026, 0.0000, 0.0000, 0.0000, 0.0000, 0.0000, 0.0000, 0.0000
0, 1.6600, 525, -0.4658, 0.2045, -0.8700, -0.8674, -0.0885, 0.6932, 0.0000, 0.0000, 0.0000, 0.0000, 0.0000, 0.0000, 1.0000, 0.0012, 0.0004, 0.0026, 0.0000, 0.0000, 0.0000, 0.0000, 0.0000, 0.0000, 0.0000
0, 1.6625, 526, -0.4737, 0.2045, -0.8662, -0.2085, -0.1413, 0.2729, 0.0000, 0.0000, 0.0000, 0.0000, 0.0000, 0.0000, 1.0000, 0.0012, 0.0004, 0.0026, 0.0000, 0.0000, 0.0000, 0.0000, 0.0000, 0.0000, 0.0000
0, 1.6650, 527, -0.4778, 0.1965, -0.8738, -0.2091, -0.2173, -0.0655, 0.0000, 0.0000, 0.0000, 0.0000, 0.0000, 0.0000, 1.0000, 0.0012, 0.0004, 0.0025, 0.0000, 0.0000, 0.0000, 0.0000, 0.0000, 0.0000, 0.0000
0, 1.6675, 528, -0.4698, 0.2123, -0.8701, -0.5426, -0.0265, -0.0628, 0.0000, 0.0000, 0.0000, 0.0000, 0.0000, 0.0000, 1.0000, 0.0012, 0.0003, 0.0026, 0.0000, 0.0000, 0.0000, 0.0000, 0.0000, 0.0000, 0.0000
0, 1.6700, 529, -0.4818, 0.2122, -0.8701, -0.9377, -0.2579, -0.5939, 0.0000, 0.0000, 0.0000, 0.0000, 0.0000, 0.0000, 1.0000, 0.0013, 0.0003, 0.0026, 0.0000, 0.0000, 0.0000, 0.0000, 0.0000, 0.0000, 0.0000
0, 1.6725, 530, -0.4735, 0.2048, -0.8508, -0.5564, 0.6428, -0.4168, 0.0000, 0.0000, 0.0000, 0.0000, 0.0000, 0.0000, 1.0000, 0.0013, 0.0004, 0.0026, 0.0000, 0.0000, 0.0000, 0.0000, 0.0000, 0.0000, 0.0000
0, 1.6750, 531, -0.4778, 0.2044, -0.8739, -0.0124, -0.2892, -0.5440, 0.0000, 0.0000, 0.0000, 0.0000, 0.0000, 0.0000, 1.0000, 0.0013, 0.0004, 0.0026, 0.0000, 0.0000, 0.0000, 0.0000, 0.0000, 0.0000, 0.0000
0, 1.6775, 532, -0.4736, 0.2007, -0.8623, -0.5311, -0.6330, 0.0859, 0.0000, 0.0000, 0.0000, 0.0000, 0.0000, 0.0000, 1.0000, 0.0013, 0.0004, 0.0026, 0.0000, 0.0000, 0.0000, 0.0000, 0.0000, 0.0000, 0.0000
0, 1.6800, 533, -0.4737, 0.2006, -0.8662, -0.7350, -0.3017, 0.0830, 0.0000, 0.0000, 0.0000, 0.0000, 0.0000, 0.0000, 1.0000, 0.0013, 0.0004, 0.0026, 0.0000, 0.0000, 0.0000, 0.0000, 0.0000, 0.0000, 0.0000
0, 1.6825, 534, -0.4698, 0.2044, -0.8739, -0.2101, -0.0752, 0.2035, 0.0000, 0.0000, 0.0000, 0.0000, 0.0000, 0.0000, 1.0000, 0.0013, 0.0003, 0.0026, 0.0000, 0.0000, 0.0000, 0.0000, 0.0000, 0.0000, 0.0000
0, 1.6850, 535, -0.4698, 0.2045, -0.8700, -0.6041, -0.3017, -0.1237, 0.0000, 0.0000, 0.0000, 0.0000, 0.0000, 0.0000, 1.0000, 0.0013, 0.0003, 0.0026, 0.0000, 0.0000, 0.0000, 0.0000, 0.0000, 0.0000, 0.0000
0, 1.6875, 536, -0.4777, 0.2085, -0.8624, -0.6829, 0.5899, 0.4029, 0.0000, 0.0000, 0.0000, 0.0000, 0.0000, 0.0000, 1.0000, 0.0013, 0.0003, 0.0026, 0.0000, 0.0000, 0.0000, 0.0000, 0.0000, 0.0000, 0.0000
0, 1.6900, 537, -0.4779, 0.1925, -0.8814, -0.6048, -0.1579, 0.2133, 0.0000, 0.0000, 0.0000, 0.0000, 0.0000, 0.0000, 1.0000, 0.0013, 0.0003, 0.0026, 0.0000, 0.0000, 0.0000, 0.0000, 0.0000, 0.0000, 0.0000
0, 1.6925, 538, -0.4777, 0.1967, -0.8661, -0.0115, -0.2115, -0.1376, 0.0000, 0.0000, 0.0000, 0.0000, 0.0000, 0.0000, 1.0000, 0.0012, 0.0003, 0.0026, 0.0000, 0.0000, 0.0000, 0.0000, 0.0000, 0.0000, 0.0000
0, 1.6950, 539, -0.4697, 0.1966, -0.8700, 0.2512, -0.1338, -0.1446, 0.0000, 0.0000, 0.0000, 0.0000, 0.0000, 0.0000, 1.0000, 0.0011, 0.0003, 0.0026, 0.0000, 0.0000, 0.0000, 0.0000, 0.0000, 0.0000, 0.0000
0, 1.7000, 540, -0.4779, 0.2082, -0.8778, -0.0078, -0.2677, 0.3395, 0.0000, 0.0000, 0.0000, 0.0000, 0.0000, 0.0000, 1.0000, 0.0011, 0.0002, 0.0026, 0.0000, 0.0000, 0.0000, 0.0000, 0.0000, 0.0000, 0.0000
0, 1.7025, 541, -0.4738, 0.2005, -0.8700, -0.3527, 0.4569, -0.0090, 0.0000, 0.0000, 0.0000, 0.0000, 0.0000, 0.0000, 1.0000, 0.0011, 0.0002, 0.0026, 0.0000, 0.0000, 0.0000, 0.0000, 0.0000, 0.0000, 0.0000
0, 1.7050, 542, -0.4815, 0.2087, -0.8509, -0.1366, -0.6247, -0.1943, 0.0000, 0.0000, 0.0000, 0.0000, 0.0000, 0.0000, 1.0000, 0.0011, 0.0002, 0.0026, 0.0000, 0.0000, 0.0000, 0.0000, 0.0000, 0.0000, 0.0000
0, 1.7075, 543, -0.4820, 0.2001, -0.8892, 0.1944, -0.6073, 0.0026, 0.0000, 0.0000, 0.0000, 0.0000, 0.0000, 0.0000, 1.0000, 0.0011, 0.0002, 0.0026, 0.0000, 0.0000, 0.0000, 0.0000, 0.0000, 0.0000, 0.0000
0, 1.7100, 544, -0.4696, 0.2007, -0.8623, -0.2740, -0.2148, 0.1398, 0.0000, 0.0000, 0.0000, 0.0000, 0.0000, 0.0000, 1.0000, 0.0011, 0.0002, 0.0025, 0.0000, 0.0000, 0.0000, 0.0000, 0.0000, 0.0000, 0.0000
0, 1.7150, 545, -0.4816, 0.2086, -0.8585, 0.1159, -0.0809, -0.5510, 0.0000, 0.0000, 0.0000, 0.0000, 0.0000, 0.0000, 1.0000, 0.0011, 0.0003, 0.0026, 0.0000, 0.0000, 0.0000, 0.0000, 0.0000, 0.0000, 0.0000
0, 1.7175, 546, -0.4693, 0.1972, -0.8392, -0.2129, -0.0884, -0.3402, 0.0000, 0.0000, 0.0000, 0.0000, 0.0000, 0.0000, 1.0000, 0.0011, 0.0003, 0.0026, 0.0000, 0.0000, 0.0000, 0.0000, 0.0000, 0.0000, 0.0000
0, 1.7225, 547, -0.4855, 0.2008, -0.8546, -0.0101, -0.2049, 0.1342, 0.0000, 0.0000, 0.0000, 0.0000, 0.0000, 0.0000, 1.0000, 0.0011, 0.0005, 0.0026, 0.0000, 0.0000, 0.0000, 0.0000, 0.0000, 0.0000, 0.0000
0, 1.7300, 548, -0.4696, 0.2048, -0.8547, -0.2218, 0.4569, -0.2157, 0.0000, 0.0000, 0.0000, 0.0000, 0.0000, 0.0000, 1.0000, 0.0011, 0.0005, 0.0026, 0.0000, 0.0000, 0.0000, 0.0000, 0.0000, 0.0000, 0.0000
0, 1.7325, 549, -0.4737, 0.2084, -0.8662, -0.4176, 0.2396, -0.4791, 0.0000, 0.0000, 0.0000, 0.0000, 0.0000, 0.0000, 1.0000, 0.0011, 0.0005, 0.0026, 0.0000, 0.0000, 0.0000, 0.0000, 0.0000, 0.0000, 0.0000
0, 1.7350, 550, -0.4737, 0.2084, -0.8662, -0.2075, -0.2834, 0.0039, 0.0000, 0.0000, 0.0000, 0.0000, 0.0000, 0.0000, 1.0000, 0.0011, 0.0005, 0.0026, 0.0000, 0.0000, 0.0000, 0.0000, 0.0000, 0.0000, 0.0000
0, 1.7400, 551, -0.4938, 0.2123, -0.8663, -0.1518, 0.4049, 0.3281, 0.0000, 0.0000, 0.0000, 0.0000, 0.0000, 0.0000, 1.0000, 0.0012, 0.0006, 0.0026, 0.0000, 0.0000, 0.0000, 0.0000, 0.0000, 0.0000, 0.0000
0, 1.7425, 552, -0.4694, 0.2050, -0.8431, 0.3797, 0.0017, -0.3541, 0.0000, 0.0000, 0.0000, 0.0000, 0.0000, 0.0000, 1.0000, 0.0012, 0.0006, 0.0026, 0.0000, 0.0000, 0.0000, 0.0000, 0.0000, 0.0000, 0.0000
0, 1.7450, 553, -0.4696, 0.2087, -0.8547, -0.0108, -0.2082, -0.0017, 0.0000, 0.0000, 0.0000, 0.0000, 0.0000, 0.0000, 1.0000, 0.0013, 0.0006, 0.0026, 0.0000, 0.0000, 0.0000, 0.0000, 0.0000, 0.0000, 0.0000
0, 1.7475, 554, -0.4697, 0.2045, -0.8662, 0.1099, 0.6247, 0.5901, 0.0000, 0.0000, 0.0000, 0.0000, 0.0000, 0.0000, 1.0000, 0.0013, 0.0006, 0.0026, 0.0000, 0.0000, 0.0000, 0.0000, 0.0000, 0.0000, 0.0000
0, 1.7500, 555, -0.4696, 0.1969, -0.8584, 0.1272, -0.5420, 0.0026, 0.0000, 0.0000, 0.0000, 0.0000, 0.0000, 0.0000, 1.0000, 0.0013, 0.0006, 0.0026, 0.0000, 0.0000, 0.0000, 0.0000, 0.0000, 0.0000, 0.0000
0, 1.7550, 556, -0.4657, 0.1888, -0.8699, 0.0447, 0.4057, 0.0521, 0.0000, 0.0000, 0.0000, 0.0000, 0.0000, 0.0000, 1.0000, 0.0012, 0.0005, 0.0026, 0.0000, 0.0000, 0.0000, 0.0000, 0.0000, 0.0000, 0.0000
0, 1.7575, 557, -0.4657, 0.1889, -0.8660, 0.4341, 0.8305, 0.1711, 0.0000, 0.0000, 0.0000, 0.0000, 0.0000, 0.0000, 1.0000, 0.0011, 0.0005, 0.0026, 0.0000, 0.0000, 0.0000, 0.0000, 0.0000, 0.0000, 0.0000
0, 1.7600, 558, -0.4617, 0.2046, -0.8662, -0.0838, 0.2702, 0.2616, 0.0000, 0.0000, 0.0000, 0.0000, 0.0000, 0.0000, 1.0000, 0.0011, 0.0004, 0.0026, 0.0000, 0.0000, 0.0000, 0.0000, 0.0000, 0.0000, 0.0000
0, 1.7625, 559, -0.4656, 0.2087, -0.8547, 0.5118, 0.1538, 0.1160, 0.0000, 0.0000, 0.0000, 0.0000, 0.0000, 0.0000, 1.0000, 0.0012, 0.0003, 0.0026, 0.0000, 0.0000, 0.0000, 0.0000, 0.0000, 0.0000, 0.0000
0, 1.7675, 560, -0.4695, 0.2009, -0.8508, 0.2434, 0.4165, 0.1838, 0.0000, 0.0000, 0.0000, 0.0000, 0.0000, 0.0000, 1.0000, 0.0012, 0.0003, 0.0026, 0.0000, 0.0000, 0.0000, 0.0000, 0.0000, 0.0000, 0.0000
0, 1.7700, 561, -0.4895, 0.2008, -0.8508, 0.1799, 0.0587, -0.4873, 0.0000, 0.0000, 0.0000, 0.0000, 0.0000, 0.0000, 1.0000, 0.0011, 0.0005, 0.0026, 0.0000, 0.0000, 0.0000, 0.0000, 0.0000, 0.0000, 0.0000
0, 1.7725, 562, -0.4857, 0.2006, -0.8662, 0.0430, 0.1777, -0.9631, 0.0000, 0.0000, 0.0000, 0.0000, 0.0000, 0.0000, 1.0000, 0.0011, 0.0005, 0.0026, 0.0000, 0.0000, 0.0000, 0.0000, 0.0000, 0.0000, 0.0000
0, 1.7825, 563, -0.4696, 0.1969, -0.8584, 0.1901, -0.2602, 0.3354, 0.0000, 0.0000, 0.0000, 0.0000, 0.0000, 0.0000, 1.0000, 0.0011, 0.0003, 0.0026, 0.0000, 0.0000, 0.0000, 0.0000, 0.0000, 0.0000, 0.0000
0, 1.7875, 564, -0.4657, 0.1927, -0.8699, 0.3264, -0.4552, 0.4728, 0.0000, 0.0000, 0.0000, 0.0000, 0.0000, 0.0000, 1.0000, 0.0010, 0.0003, 0.0026, 0.0000, 0.0000, 0.0000, 0.0000, 0.0000, 0.0000, 0.0000
0, 1.7900, 565, -0.4697, 0.1966, -0.8700, -0.2813, 0.0446, -0.3416, 0.0000, 0.0000, 0.0000, 0.0000, 0.0000, 0.0000, 1.0000, 0.0010, 0.0002, 0.0026, 0.0000, 0.0000, 0.0000, 0.0000, 0.0000, 0.0000, 0.0000
0, 1.7950, 566, -0.4858, 0.2123, -0.8663, -0.2698, -0.1950, 0.9553, 0.0000, 0.0000, 0.0000, 0.0000, 0.0000, 0.0000, 1.0000, 0.0011, 0.0002, 0.0025, 0.0000, 0.0000, 0.0000, 0.0000, 0.0000, 0.0000, 0.0000
0, 1.7975, 567, -0.4856, 0.1928, -0.8622, -0.0845, 0.2669, 0.1256, 0.0000, 0.0000, 0.0000, 0.0000, 0.0000, 0.0000, 1.0000, 0.0010, 0.0003, 0.0025, 0.0000, 0.0000, 0.0000, 0.0000, 0.0000, 0.0000, 0.0000
0, 1.8000, 568, -0.4777, 0.1888, -0.8660, -0.0203, 0.2611, -0.2156, 0.0000, 0.0000, 0.0000, 0.0000, 0.0000, 0.0000, 1.0000, 0.0009, 0.0003, 0.0025, 0.0000, 0.0000, 0.0000, 0.0000, 0.0000, 0.0000, 0.0000
0, 1.8025, 569, -0.4737, 0.1849, -0.8698, -0.3479, 0.1859, -0.0033, 0.0000, 0.0000, 0.0000, 0.0000, 0.0000, 0.0000, 1.0000, 0.0008, 0.0003, 0.0025, 0.0000, 0.0000, 0.0000, 0.0000, 0.0000, 0.0000, 0.0000
0, 1.8050, 570, -0.4774, 0.2050, -0.8431, 0.1191, -0.0661, 0.0606, 0.0000, 0.0000, 0.0000, 0.0000, 0.0000, 0.0000, 1.0000, 0.0009, 0.0005, 0.0025, 0.0000, 0.0000, 0.0000, 0.0000, 0.0000, 0.0000, 0.0000
0, 1.8075, 571, -0.4615, 0.1930, -0.8545, 0.4459, 0.0786, -0.0851, 0.0000, 0.0000, 0.0000, 0.0000, 0.0000, 0.0000, 1.0000, 0.0008, 0.0004, 0.0025, 0.0000, 0.0000, 0.0000, 0.0000, 0.0000, 0.0000, 0.0000
0, 1.8100, 572, -0.4776, 0.1967, -0.8623, 0.1767, 0.4107, 0.0493, 0.0000, 0.0000, 0.0000, 0.0000, 0.0000, 0.0000, 1.0000, 0.0008, 0.0004, 0.0025, 0.0000, 0.0000, 0.0000, 0.0000, 0.0000, 0.0000, 0.0000
0, 1.8125, 573, -0.4817, 0.1927, -0.8699, 0.3831, -0.0561, 0.0551, 0.0000, 0.0000, 0.0000, 0.0000, 0.0000, 0.0000, 1.0000, 0.0007, 0.0005, 0.0025, 0.0000, 0.0000, 0.0000, 0.0000, 0.0000, 0.0000, 0.0000
0, 1.8150, 574, -0.4777, 0.2006, -0.8662, -0.0172, 0.3487, 0.5986, 0.0000, 0.0000, 0.0000, 0.0000, 0.0000, 0.0000, 1.0000, 0.0007, 0.0005, 0.0025, 0.0000, 0.0000, 0.0000, 0.0000, 0.0000, 0.0000, 0.0000
0, 1.8175, 575, -0.4777, 0.1967, -0.8661, -0.2749, -0.1454, 0.2063, 0.0000, 0.0000, 0.0000, 0.0000, 0.0000, 0.0000, 1.0000, 0.0007, 0.0005, 0.0025, 0.0000, 0.0000, 0.0000, 0.0000, 0.0000, 0.0000, 0.0000
0, 1.8200, 576, -0.4819, 0.2043, -0.8777, -0.6082, 0.1198, 0.4794, 0.0000, 0.0000, 0.0000, 0.0000, 0.0000, 0.0000, 1.0000, 0.0007, 0.0005, 0.0025, 0.0000, 0.0000, 0.0000, 0.0000, 0.0000, 0.0000, 0.0000
0, 1.8225, 577, -0.4817, 0.1888, -0.8660, -0.7493, 0.2189, -0.8119, 0.0000, 0.0000, 0.0000, 0.0000, 0.0000, 0.0000, 1.0000, 0.0006, 0.0005, 0.0025, 0.0000, 0.0000, 0.0000, 0.0000, 0.0000, 0.0000, 0.0000
0, 1.8250, 578, -0.4779, 0.1964, -0.8776, 0.2379, 0.6842, 0.0422, 0.0000, 0.0000, 0.0000, 0.0000, 0.0000, 0.0000, 1.0000, 0.0006, 0.0005, 0.0025, 0.0000, 0.0000, 0.0000, 0.0000, 0.0000, 0.0000, 0.0000
0, 1.8275, 579, -0.4699, 0.1964, -0.8815, 0.1760, 0.4074, -0.0867, 0.0000, 0.0000, 0.0000, 0.0000, 0.0000, 0.0000, 1.0000, 0.0005, 0.0004, 0.0025, 0.0000, 0.0000, 0.0000, 0.0000, 0.0000, 0.0000, 0.0000
0, 1.8300, 580, -0.4699, 0.2122, -0.8740, -0.2888, 0.5966, 0.0547, 0.0000, 0.0000, 0.0000, 0.0000, 0.0000, 0.0000, 1.0000, 0.0006, 0.0004, 0.0025, 0.0000, 0.0000, 0.0000, 0.0000, 0.0000, 0.0000, 0.0000
0, 1.8325, 581, -0.4698, 0.2045, -0.8700, 0.3137, 0.2190, 0.3226, 0.0000, 0.0000, 0.0000, 0.0000, 0.0000, 0.0000, 1.0000, 0.0006, 0.0003, 0.0025, 0.0000, 0.0000, 0.0000, 0.0000, 0.0000, 0.0000, 0.0000
0, 1.8400, 582, -0.4617, 0.2125, -0.8624, -0.1588, 0.6660, -0.0854, 0.0000, 0.0000, 0.0000, 0.0000, 0.0000, 0.0000, 1.0000, 0.0007, 0.0003, 0.0025, 0.0000, 0.0000, 0.0000, 0.0000, 0.0000, 0.0000, 0.0000
0, 1.8425, 583, -0.4656, 0.1969, -0.8584, -0.0875, 0.3264, -0.2156, 0.0000, 0.0000, 0.0000, 0.0000, 0.0000, 0.0000, 1.0000, 0.0007, 0.0003, 0.0025, 0.0000, 0.0000, 0.0000, 0.0000, 0.0000, 0.0000, 0.0000
0, 1.8450, 584, -0.4817, 0.1888, -0.8699, -0.2862, 0.5354, 0.3280, 0.0000, 0.0000, 0.0000, 0.0000, 0.0000, 0.0000, 1.0000, 0.0006, 0.0003, 0.0025, 0.0000, 0.0000, 0.0000, 0.0000, 0.0000, 0.0000, 0.0000
0, 1.8500, 585, -0.4657, 0.2006, -0.8662, -0.7327, -0.2174, 0.7612, 0.0000, 0.0000, 0.0000, 0.0000, 0.0000, 0.0000, 1.0000, 0.0006, 0.0002, 0.0025, 0.0000, 0.0000, 0.0000, 0.0000, 0.0000, 0.0000, 0.0000
