SensorId, TimeStamp (s), FrameNumber, AccX (g), AccY (g), AccZ (g), GyroX (deg/s), GyroY (deg/s), GyroZ (deg/s), MagX (uT), MagY (uT), MagZ (uT), EulerX (deg), EulerY (deg), EulerZ (deg), QuatW, QuatX, QuatY, QuatZ, LinAccX (g), LinAccY (g), LinAccZ (g), Pressure (kPa), Altitude (m), Temperature (degC), HeaveMotion (m)
0, 0.0000, 0, -0.4818, 0.1769, -0.8774, 0.1714, -0.3645, 0.3465, 0.0000, 0.0000, 0.0000, 0.0000, 0.0000, 0.0000, 0.9999, -0.0034, -0.0012, -0.0094, 0.0000, 0.0000, 0.0000, 0.0000, 0.0000, 0.0000, 0.0000
0, 0.0025, 1, -0.4657, 0.1848, -0.8737, 0.2942, -0.0357, -0.2751, 0.0000, 0.0000, 0.0000, 0.0000, 0.0000, 0.0000, 0.9999, -0.0035, -0.0013, -0.0094, 0.0000, 0.0000, 0.0000, 0.0000, 0.0000, 0.0000, 0.0000
0, 0.0050, 2, -0.4777, 0.1770, -0.8698, -0.3085, 0.2675, -0.8134, 0.0000, 0.0000, 0.0000, 0.0000, 0.0000, 0.0000, 0.9999, -0.0035, -0.0012, -0.0094, 0.0000, 0.0000, 0.0000, 0.0000, 0.0000, 0.0000, 0.0000
0, 0.0075, 3, -0.4737, 0.1927, -0.8699, 0.0957, 0.0279, -0.1364, 0.0000, 0.0000, 0.0000, 0.0000, 0.0000, 0.0000, 0.9999, -0.0034, -0.0012, -0.0094, 0.0000, 0.0000, 0.0000, 0.0000, 0.0000, 0.0000, 0.0000
0, 0.0100, 4, -0.4696, 0.1811, -0.8621, -0.1696, 0.1584, 0.0702, 0.0000, 0.0000, 0.0000, 0.0000, 0.0000, 0.0000, 0.9999, -0.0034, -0.0012, -0.0094, 0.0000, 0.0000, 0.0000, 0.0000, 0.0000, 0.0000, 0.0000
0, 0.0125, 5, -0.4737, 0.1810, -0.8698, 0.1655, -0.2456, -0.3360, 0.0000, 0.0000, 0.0000, 0.0000, 0.0000, 0.0000, 0.9999, -0.0035, -0.0012, -0.0094, 0.0000, 0.0000, 0.0000, 0.0000, 0.0000, 0.0000, 0.0000
0, 0.0175, 6, -0.4857, 0.1848, -0.8737, -0.1584, -0.4497, 0.1510, 0.0000, 0.0000, 0.0000, 0.0000, 0.0000, 0.0000, 0.9999, -0.0034, -0.0010, -0.0094, 0.0000, 0.0000, 0.0000, 0.0000, 0.0000, 0.0000, 0.0000
0, 0.0200, 7, -0.4858, 0.1729, -0.8774, -0.3567, -0.4588, 0.0872, 0.0000, 0.0000, 0.0000, 0.0000, 0.0000, 0.0000, 0.9999, -0.0035, -0.0010, -0.0094, 0.0000, 0.0000, 0.0000, 0.0000, 0.0000, 0.0000, 0.0000
0, 0.0225, 8, -0.4697, 0.1849, -0.8698, -0.5587, -0.1920, 0.2216, 0.0000, 0.0000, 0.0000, 0.0000, 0.0000, 0.0000, 0.9999, -0.0035, -0.0010, -0.0094, 0.0000, 0.0000, 0.0000, 0.0000, 0.0000, 0.0000, 0.0000
0, 0.0250, 9, -0.4695, 0.1890, -0.8583, 0.0270, 0.1593, -0.2058, 0.0000, 0.0000, 0.0000, 0.0000, 0.0000, 0.0000, 0.9999, -0.0034, -0.0010, -0.0094, 0.0000, 0.0000, 0.0000, 0.0000, 0.0000, 0.0000, 0.0000
0, 0.0275, 10, -0.4775, 0.1812, -0.8583, 0.0283, 0.0188, -0.4069, 0.0000, 0.0000, 0.0000, 0.0000, 0.0000, 0.0000, 0.9999, -0.0035, -0.0009, -0.0094, 0.0000, 0.0000, 0.0000, 0.0000, 0.0000, 0.0000, 0.0000
0, 0.0300, 11, -0.4777, 0.1927, -0.8699, 0.4295, -0.3083, -0.5441, 0.0000, 0.0000, 0.0000, 0.0000, 0.0000, 0.0000, 0.9999, -0.0034, -0.0009, -0.0094, 0.0000, 0.0000, 0.0000, 0.0000, 0.0000, 0.0000, 0.0000
0, 0.0325, 12, -0.4817, 0.1927, -0.8699, -0.5017, 0.2088, -0.1282, 0.0000, 0.0000, 0.0000, 0.0000, 0.0000, 0.0000, 0.9999, -0.0034, -0.0009, -0.0094, 0.0000, 0.0000, 0.0000, 0.0000, 0.0000, 0.0000, 0.0000
0, 0.0350, 13, -0.4777, 0.1966, -0.8700, 0.2867, 0.5163, 0.1213, 0.0000, 0.0000, 0.0000, 0.0000, 0.0000, 0.0000, 0.9999, -0.0034, -0.0009, -0.0094, 0.0000, 0.0000, 0.0000, 0.0000, 0.0000, 0.0000, 0.0000
0, 0.0375, 14, -0.4617, 0.1928, -0.8661, -0.1672, -0.1242, -0.3999, 0.0000, 0.0000, 0.0000, 0.0000, 0.0000, 0.0000, 0.9999, -0.0033, -0.0009, -0.0094, 0.0000, 0.0000, 0.0000, 0.0000, 0.0000, 0.0000, 0.0000
0, 0.0400, 15, -0.4700, 0.1963, -0.8853, -0.3024, 0.0758, -0.3334, 0.0000, 0.0000, 0.0000, 0.0000, 0.0000, 0.0000, 1.0000, -0.0033, -0.0010, -0.0094, 0.0000, 0.0000, 0.0000, 0.0000, 0.0000, 0.0000, 0.0000
0, 0.0425, 16, -0.4657, 0.1810, -0.8698, -0.3009, 0.0097, -0.2640, 0.0000, 0.0000, 0.0000, 0.0000, 0.0000, 0.0000, 1.0000, -0.0033, -0.0010, -0.0094, 0.0000, 0.0000, 0.0000, 0.0000, 0.0000, 0.0000, 0.0000
0, 0.0450, 17, -0.4739, 0.1965, -0.8776, 0.1624, 0.0337, -0.0019, 0.0000, 0.0000, 0.0000, 0.0000, 0.0000, 0.0000, 1.0000, -0.0032, -0.0011, -0.0093, 0.0000, 0.0000, 0.0000, 0.0000, 0.0000, 0.0000, 0.0000
0, 0.0475, 18, -0.4857, 0.1808, -0.8736, 0.2291, 0.0395, 0.1326, 0.0000, 0.0000, 0.0000, 0.0000, 0.0000, 0.0000, 1.0000, -0.0033, -0.0010, -0.0094, 0.0000, 0.0000, 0.0000, 0.0000, 0.0000, 0.0000, 0.0000
0, 0.0500, 19, -0.4818, 0.2043, -0.8739, 0.1071, -0.5058, 0.2148, 0.0000, 0.0000, 0.0000, 0.0000, 0.0000, 0.0000, 1.0000, -0.0032, -0.0010, -0.0094, 0.0000, 0.0000, 0.0000, 0.0000, 0.0000, 0.0000, 0.0000
0, 0.0526, 20, -0.4898, 0.2004, -0.8738, -0.3578, -0.2440, 0.5586, 0.0000, 0.0000, 0.0000, 0.0000, 0.0000, 0.0000, 1.0000, -0.0032, -0.0010, -0.0094, 0.0000, 0.0000, 0.0000, 0.0000, 0.0000, 0.0000, 0.0000
0, 0.0551, 21, -0.4739, 0.1885, -0.8852, -0.4955, -0.0556, 0.1494, 0.0000, 0.0000, 0.0000, 0.0000, 0.0000, 0.0000, 1.0000, -0.0032, -0.0010, -0.0094, 0.0000, 0.0000, 0.0000, 0.0000, 0.0000, 0.0000, 0.0000
0, 0.0600, 22, -0.4856, 0.1967, -0.8623, -0.2412, 0.4964, 0.1324, 0.0000, 0.0000, 0.0000, 0.0000, 0.0000, 0.0000, 1.0000, -0.0031, -0.0009, -0.0094, 0.0000, 0.0000, 0.0000, 0.0000, 0.0000, 0.0000, 0.0000
0, 0.0625, 23, -0.4777, 0.1966, -0.8700, -0.1764, 0.3468, -0.5457, 0.0000, 0.0000, 0.0000, 0.0000, 0.0000, 0.0000, 1.0000, -0.0031, -0.0009, -0.0093, 0.0000, 0.0000, 0.0000, 0.0000, 0.0000, 0.0000, 0.0000
0, 0.0700, 24, -0.4777, 0.1967, -0.8661, 0.1565, 0.2998, -0.2115, 0.0000, 0.0000, 0.0000, 0.0000, 0.0000, 0.0000, 1.0000, -0.0030, -0.0009, -0.0093, 0.0000, 0.0000, 0.0000, 0.0000, 0.0000, 0.0000, 0.0000
0, 0.0725, 25, -0.4817, 0.1966, -0.8700, -0.2929, -0.3935, -0.1195, 0.0000, 0.0000, 0.0000, 0.0000, 0.0000, 0.0000, 1.0000, -0.0030, -0.0009, -0.0093, 0.0000, 0.0000, 0.0000, 0.0000, 0.0000, 0.0000, 0.0000
0, 0.0750, 26, -0.4776, 0.1771, -0.8659, 0.0969, -0.0398, -0.1350, 0.0000, 0.0000, 0.0000, 0.0000, 0.0000, 0.0000, 1.0000, -0.0031, -0.0008, -0.0093, 0.0000, 0.0000, 0.0000, 0.0000, 0.0000, 0.0000, 0.0000
0, 0.0775, 27, -0.4738, 0.1925, -0.8776, -0.1665, -0.1208, -0.2639, 0.0000, 0.0000, 0.0000, 0.0000, 0.0000, 0.0000, 1.0000, -0.0031, -0.0008, -0.0093, 0.0000, 0.0000, 0.0000, 0.0000, 0.0000, 0.0000, 0.0000
0, 0.0800, 28, -0.4700, 0.1845, -0.8891, 0.0331, -0.0324, 0.2742, 0.0000, 0.0000, 0.0000, 0.0000, 0.0000, 0.0000, 1.0000, -0.0031, -0.0009, -0.0093, 0.0000, 0.0000, 0.0000, 0.0000, 0.0000, 0.0000, 0.0000
0, 0.0825, 29, -0.4696, 0.1850, -0.8660, -0.0312, -0.1737, 0.1425, 0.0000, 0.0000, 0.0000, 0.0000, 0.0000, 0.0000, 1.0000, -0.0031, -0.0009, -0.0093, 0.0000, 0.0000, 0.0000, 0.0000, 0.0000, 0.0000, 0.0000
0, 0.0850, 30, -0.4657, 0.1889, -0.8660, -0.3640, 0.0204, 0.2811, 0.0000, 0.0000, 0.0000, 0.0000, 0.0000, 0.0000, 1.0000, -0.0031, -0.0010, -0.0093, 0.0000, 0.0000, 0.0000, 0.0000, 0.0000, 0.0000, 0.0000
0, 0.0900, 31, -0.4738, 0.1926, -0.8738, 0.6300, -0.2893, -0.0725, 0.0000, 0.0000, 0.0000, 0.0000, 0.0000, 0.0000, 1.0000, -0.0031, -0.0010, -0.0093, 0.0000, 0.0000, 0.0000, 0.0000, 0.0000, 0.0000, 0.0000
0, 0.1000, 32, -0.4619, 0.2003, -0.8815, -0.0322, -0.3985, -0.7368, 0.0000, 0.0000, 0.0000, 0.0000, 0.0000, 0.0000, 1.0000, -0.0030, -0.0011, -0.0093, 0.0000, 0.0000, 0.0000, 0.0000, 0.0000, 0.0000, 0.0000
0, 0.1075, 33, -0.4736, 0.1811, -0.8621, 0.1682, -0.1596, 0.4102, 0.0000, 0.0000, 0.0000, 0.0000, 0.0000, 0.0000, 1.0000, -0.0031, -0.0011, -0.0093, 0.0000, 0.0000, 0.0000, 0.0000, 0.0000, 0.0000, 0.0000
0, 0.1100, 34, -0.4616, 0.1772, -0.8659, 1.0986, -0.4603, 0.5337, 0.0000, 0.0000, 0.0000, 0.0000, 0.0000, 0.0000, 1.0000, -0.0031, -0.0011, -0.0093, 0.0000, 0.0000, 0.0000, 0.0000, 0.0000, 0.0000, 0.0000
0, 0.1151, 35, -0.4737, 0.1928, -0.8661, 0.0345, -0.0258, 0.5460, 0.0000, 0.0000, 0.0000, 0.0000, 0.0000, 0.0000, 1.0000, -0.0031, -0.0011, -0.0094, 0.0000, 0.0000, 0.0000, 0.0000, 0.0000, 0.0000, 0.0000
0, 0.1176, 36, -0.4817, 0.1809, -0.8736, 0.2362, -0.2943, 0.3436, 0.0000, 0.0000, 0.0000, 0.0000, 0.0000, 0.0000, 1.0000, -0.0031, -0.0011, -0.0094, 0.0000, 0.0000, 0.0000, 0.0000, 0.0000, 0.0000, 0.0000
0, 0.1200, 37, -0.4737, 0.1888, -0.8699, -0.3022, -0.0696, -0.7383, 0.0000, 0.0000, 0.0000, 0.0000, 0.0000, 0.0000, 1.0000, -0.0031, -0.0011, -0.0094, 0.0000, 0.0000, 0.0000, 0.0000, 0.0000, 0.0000, 0.0000
0, 0.1225, 38, -0.4739, 0.1886, -0.8814, -0.3635, -0.2704, -0.5288, 0.0000, 0.0000, 0.0000, 0.0000, 0.0000, 0.0000, 1.0000, -0.0031, -0.0011, -0.0093, 0.0000, 0.0000, 0.0000, 0.0000, 0.0000, 0.0000, 0.0000
0, 0.1275, 39, -0.4696, 0.1850, -0.8622, 0.0295, 0.1709, 0.2699, 0.0000, 0.0000, 0.0000, 0.0000, 0.0000, 0.0000, 1.0000, -0.0031, -0.0011, -0.0094, 0.0000, 0.0000, 0.0000, 0.0000, 0.0000, 0.0000, 0.0000
0, 0.1325, 40, -0.4777, 0.1849, -0.8698, 0.6288, -0.0744, 0.3990, 0.0000, 0.0000, 0.0000, 0.0000, 0.0000, 0.0000, 1.0000, -0.0031, -0.0011, -0.0094, 0.0000, 0.0000, 0.0000, 0.0000, 0.0000, 0.0000, 0.0000
0, 0.1350, 41, -0.4696, 0.1889, -0.8622, -0.2316, -0.0457, 0.1438, 0.0000, 0.0000, 0.0000, 0.0000, 0.0000, 0.0000, 1.0000, -0.0031, -0.0011, -0.0094, 0.0000, 0.0000, 0.0000, 0.0000, 0.0000, 0.0000, 0.0000
0, 0.1400, 42, -0.4737, 0.1928, -0.8661, -0.2407, 0.4253, -0.0021, 0.0000, 0.0000, 0.0000, 0.0000, 0.0000, 0.0000, 1.0000, -0.0030, -0.0011, -0.0093, 0.0000, 0.0000, 0.0000, 0.0000, 0.0000, 0.0000, 0.0000
0, 0.1425, 43, -0.4777, 0.1809, -0.8698, -0.6251, -0.1961, 0.1550, 0.0000, 0.0000, 0.0000, 0.0000, 0.0000, 0.0000, 1.0000, -0.0031, -0.0011, -0.0093, 0.0000, 0.0000, 0.0000, 0.0000, 0.0000, 0.0000, 0.0000
0, 0.1450, 44, -0.4695, 0.2008, -0.8546, -0.2312, -0.0440, 0.2118, 0.0000, 0.0000, 0.0000, 0.0000, 0.0000, 0.0000, 1.0000, -0.0029, -0.0011, -0.0093, 0.0000, 0.0000, 0.0000, 0.0000, 0.0000, 0.0000, 0.0000
0, 0.1475, 45, -0.4818, 0.1808, -0.8775, 0.4950, 0.1321, 0.7373, 0.0000, 0.0000, 0.0000, 0.0000, 0.0000, 0.0000, 1.0000, -0.0029, -0.0011, -0.0093, 0.0000, 0.0000, 0.0000, 0.0000, 0.0000, 0.0000, 0.0000
0, 0.1525, 46, -0.4697, 0.1889, -0.8660, -0.1082, 0.1394, -0.8147, 0.0000, 0.0000, 0.0000, 0.0000, 0.0000, 0.0000, 1.0000, -0.0030, -0.0010, -0.0093, 0.0000, 0.0000, 0.0000, 0.0000, 0.0000, 0.0000, 0.0000
0, 0.1550, 47, -0.4737, 0.1927, -0.8699, 0.0923, 0.1585, -0.3432, 0.0000, 0.0000, 0.0000, 0.0000, 0.0000, 0.0000, 1.0000, -0.0030, -0.0010, -0.0093, 0.0000, 0.0000, 0.0000, 0.0000, 0.0000, 0.0000, 0.0000
0, 0.1575, 48, -0.4775, 0.1851, -0.8583, -0.2391, 0.1394, -0.6081, 0.0000, 0.0000, 0.0000, 0.0000, 0.0000, 0.0000, 1.0000, -0.0030, -0.0010, -0.0093, 0.0000, 0.0000, 0.0000, 0.0000, 0.0000, 0.0000, 0.0000
0, 0.1600, 49, -0.4817, 0.1966, -0.8700, 0.0961, 0.0296, -0.0685, 0.0000, 0.0000, 0.0000, 0.0000, 0.0000, 0.0000, 1.0000, -0.0028, -0.0009, -0.0093, 0.0000, 0.0000, 0.0000, 0.0000, 0.0000, 0.0000, 0.0000
0, 0.1675, 50, -0.4777, 0.2006, -0.8662, -0.0311, -0.3935, -0.5329, 0.0000, 0.0000, 0.0000, 0.0000, 0.0000, 0.0000, 1.0000, -0.0028, -0.0009, -0.0093, 0.0000, 0.0000, 0.0000, 0.0000, 0.0000, 0.0000, 0.0000
0, 0.1700, 51, -0.4739, 0.1924, -0.8853, 0.0325, -0.1084, -0.0642, 0.0000, 0.0000, 0.0000, 0.0000, 0.0000, 0.0000, 1.0000, -0.0028, -0.0010, -0.0093, 0.0000, 0.0000, 0.0000, 0.0000, 0.0000, 0.0000, 0.0000
0, 0.1725, 52, -0.4659, 0.1847, -0.8814, 0.0997, -0.1737, -0.0642, 0.0000, 0.0000, 0.0000, 0.0000, 0.0000, 0.0000, 1.0000, -0.0028, -0.0011, -0.0093, 0.0000, 0.0000, 0.0000, 0.0000, 0.0000, 0.0000, 0.0000
0, 0.1750, 53, -0.4739, 0.1924, -0.8853, 0.4951, -0.0877, 0.0620, 0.0000, 0.0000, 0.0000, 0.0000, 0.0000, 0.0000, 1.0000, -0.0028, -0.0011, -0.0093, 0.0000, 0.0000, 0.0000, 0.0000, 0.0000, 0.0000, 0.0000
0, 0.1776, 54, -0.4736, 0.1889, -0.8622, -0.0347, -0.0432, -0.0643, 0.0000, 0.0000, 0.0000, 0.0000, 0.0000, 0.0000, 1.0000, -0.0027, -0.0010, -0.0093, 0.0000, 0.0000, 0.0000, 0.0000, 0.0000, 0.0000, 0.0000
0, 0.1801, 55, -0.4738, 0.1807, -0.8813, 0.2322, -0.0927, 0.2714, 0.0000, 0.0000, 0.0000, 0.0000, 0.0000, 0.0000, 1.0000, -0.0028, -0.0011, -0.0093, 0.0000, 0.0000, 0.0000, 0.0000, 0.0000, 0.0000, 0.0000
0, 0.1825, 56, -0.4818, 0.1887, -0.8737, 0.2854, 0.4370, -0.3530, 0.0000, 0.0000, 0.0000, 0.0000, 0.0000, 0.0000, 1.0000, -0.0028, -0.0011, -0.0093, 0.0000, 0.0000, 0.0000, 0.0000, 0.0000, 0.0000, 0.0000
0, 0.1850, 57, -0.4735, 0.1851, -0.8583, 0.3594, 0.1833, 0.2629, 0.0000, 0.0000, 0.0000, 0.0000, 0.0000, 0.0000, 1.0000, -0.0028, -0.0010, -0.0093, 0.0000, 0.0000, 0.0000, 0.0000, 0.0000, 0.0000, 0.0000
0, 0.1875, 58, -0.4737, 0.1889, -0.8660, 0.0348, -0.1712, 0.1411, 0.0000, 0.0000, 0.0000, 0.0000, 0.0000, 0.0000, 1.0000, -0.0028, -0.0010, -0.0093, 0.0000, 0.0000, 0.0000, 0.0000, 0.0000, 0.0000, 0.0000
0, 0.1900, 59, -0.4698, 0.1847, -0.8775, -0.2330, -0.0523, -0.1280, 0.0000, 0.0000, 0.0000, 0.0000, 0.0000, 0.0000, 1.0000, -0.0028, -0.0011, -0.0093, 0.0000, 0.0000, 0.0000, 0.0000, 0.0000, 0.0000, 0.0000
0, 0.1925, 60, -0.4740, 0.1963, -0.8853, -0.4971, -0.1366, -0.3929, 0.0000, 0.0000, 0.0000, 0.0000, 0.0000, 0.0000, 1.0000, -0.0028, -0.0011, -0.0093, 0.0000, 0.0000, 0.0000, 0.0000, 0.0000, 0.0000, 0.0000
0, 0.1950, 61, -0.4776, 0.1928, -0.8622, 0.1616, -0.1167, -0.6107, 0.0000, 0.0000, 0.0000, 0.0000, 0.0000, 0.0000, 1.0000, -0.0028, -0.0011, -0.0093, 0.0000, 0.0000, 0.0000, 0.0000, 0.0000, 0.0000, 0.0000
0, 0.1975, 62, -0.4776, 0.1810, -0.8660, -0.3662, -0.1366, -0.5996, 0.0000, 0.0000, 0.0000, 0.0000, 0.0000, 0.0000, 1.0000, -0.0028, -0.0010, -0.0093, 0.0000, 0.0000, 0.0000, 0.0000, 0.0000, 0.0000, 0.0000
0, 0.2025, 63, -0.4697, 0.1888, -0.8699, 0.3626, -0.1687, -0.2737, 0.0000, 0.0000, 0.0000, 0.0000, 0.0000, 0.0000, 1.0000, -0.0028, -0.0010, -0.0093, 0.0000, 0.0000, 0.0000, 0.0000, 0.0000, 0.0000, 0.0000
0, 0.2050, 64, -0.4696, 0.1850, -0.8660, 0.5650, -0.2868, 0.1328, 0.0000, 0.0000, 0.0000, 0.0000, 0.0000, 0.0000, 1.0000, -0.0028, -0.0010, -0.0093, 0.0000, 0.0000, 0.0000, 0.0000, 0.0000, 0.0000, 0.0000
0, 0.2075, 65, -0.4738, 0.1808, -0.8775, 0.1604, 0.1709, 0.0632, 0.0000, 0.0000, 0.0000, 0.0000, 0.0000, 0.0000, 1.0000, -0.0029, -0.0011, -0.0093, 0.0000, 0.0000, 0.0000, 0.0000, 0.0000, 0.0000, 0.0000
0, 0.2100, 66, -0.4698, 0.1769, -0.8774, -0.3061, 0.2791, -0.3377, 0.0000, 0.0000, 0.0000, 0.0000, 0.0000, 0.0000, 1.0000, -0.0030, -0.0011, -0.0093, 0.0000, 0.0000, 0.0000, 0.0000, 0.0000, 0.0000, 0.0000
0, 0.2125, 67, -0.4736, 0.1968, -0.8623, 0.3550, 0.2362, -0.3502, 0.0000, 0.0000, 0.0000, 0.0000, 0.0000, 0.0000, 1.0000, -0.0029, -0.0011, -0.0093, 0.0000, 0.0000, 0.0000, 0.0000, 0.0000, 0.0000, 0.0000
0, 0.2150, 68, -0.4698, 0.1769, -0.8774, 0.2209, 0.2213, -0.7551, 0.0000, 0.0000, 0.0000, 0.0000, 0.0000, 0.0000, 1.0000, -0.0030, -0.0011, -0.0093, 0.0000, 0.0000, 0.0000, 0.0000, 0.0000, 0.0000, 0.0000
0, 0.2200, 69, -0.4739, 0.1846, -0.8852, 0.2300, -0.0299, 0.0661, 0.0000, 0.0000, 0.0000, 0.0000, 0.0000, 0.0000, 1.0000, -0.0031, -0.0012, -0.0093, 0.0000, 0.0000, 0.0000, 0.0000, 0.0000, 0.0000, 0.0000
0, 0.2225, 70, -0.4778, 0.1887, -0.8737, 0.0964, 0.0312, -0.0005, 0.0000, 0.0000, 0.0000, 0.0000, 0.0000, 0.0000, 1.0000, -0.0031, -0.0011, -0.0093, 0.0000, 0.0000, 0.0000, 0.0000, 0.0000, 0.0000, 0.0000
0, 0.2250, 71, -0.4777, 0.1888, -0.8660, 0.4272, -0.0257, -0.0740, 0.0000, 0.0000, 0.0000, 0.0000, 0.0000, 0.0000, 1.0000, -0.0030, -0.0011, -0.0093, 0.0000, 0.0000, 0.0000, 0.0000, 0.0000, 0.0000, 0.0000
0, 0.2275, 72, -0.4737, 0.1927, -0.8699, 0.9636, -0.3330, 0.3977, 0.0000, 0.0000, 0.0000, 0.0000, 0.0000, 0.0000, 1.0000, -0.0030, -0.0011, -0.0093, 0.0000, 0.0000, 0.0000, 0.0000, 0.0000, 0.0000, 0.0000
0, 0.2300, 73, -0.4778, 0.1926, -0.8738, -0.1681, 0.1651, 0.3420, 0.0000, 0.0000, 0.0000, 0.0000, 0.0000, 0.0000, 1.0000, -0.0030, -0.0011, -0.0093, 0.0000, 0.0000, 0.0000, 0.0000, 0.0000, 0.0000, 0.0000
0, 0.2325, 74, -0.4735, 0.1852, -0.8545, -0.1646, -0.1853, -0.1266, 0.0000, 0.0000, 0.0000, 0.0000, 0.0000, 0.0000, 1.0000, -0.0030, -0.0010, -0.0093, 0.0000, 0.0000, 0.0000, 0.0000, 0.0000, 0.0000, 0.0000
0, 0.2350, 75, -0.4699, 0.1924, -0.8853, 0.1054, -0.5141, -0.1250, 0.0000, 0.0000, 0.0000, 0.0000, 0.0000, 0.0000, 1.0000, -0.0030, -0.0011, -0.0093, 0.0000, 0.0000, 0.0000, 0.0000, 0.0000, 0.0000, 0.0000
0, 0.2375, 76, -0.4738, 0.1808, -0.8775, -0.2939, -0.2514, 0.1495, 0.0000, 0.0000, 0.0000, 0.0000, 0.0000, 0.0000, 1.0000, -0.0030, -0.0011, -0.0093, 0.0000, 0.0000, 0.0000, 0.0000, 0.0000, 0.0000, 0.0000
0, 0.2401, 77, -0.4777, 0.1888, -0.8660, -0.4983, -0.0688, -0.3943, 0.0000, 0.0000, 0.0000, 0.0000, 0.0000, 0.0000, 1.0000, -0.0030, -0.0011, -0.0093, 0.0000, 0.0000, 0.0000, 0.0000, 0.0000, 0.0000, 0.0000
0, 0.2450, 78, -0.4778, 0.1887, -0.8737, -0.2292, -0.1812, 0.1467, 0.0000, 0.0000, 0.0000, 0.0000, 0.0000, 0.0000, 1.0000, -0.0030, -0.0010, -0.0093, 0.0000, 0.0000, 0.0000, 0.0000, 0.0000, 0.0000, 0.0000
0, 0.2475, 79, -0.4698, 0.2005, -0.8700, -0.1007, -0.0456, -0.0629, 0.0000, 0.0000, 0.0000, 0.0000, 0.0000, 0.0000, 1.0000, -0.0028, -0.0011, -0.0093, 0.0000, 0.0000, 0.0000, 0.0000, 0.0000, 0.0000, 0.0000
0, 0.2500, 80, -0.4776, 0.1849, -0.8660, -0.4273, -0.2630, -0.1196, 0.0000, 0.0000, 0.0000, 0.0000, 0.0000, 0.0000, 1.0000, -0.0028, -0.0010, -0.0093, 0.0000, 0.0000, 0.0000, 0.0000, 0.0000, 0.0000, 0.0000
0, 0.2525, 81, -0.4856, 0.1849, -0.8660, -0.5756, 0.3897, -0.9466, 0.0000, 0.0000, 0.0000, 0.0000, 0.0000, 0.0000, 1.0000, -0.0028, -0.0010, -0.0092, 0.0000, 0.0000, 0.0000, 0.0000, 0.0000, 0.0000, 0.0000
0, 0.2550, 82, -0.4898, 0.1807, -0.8775, -0.1152, 0.6203, -0.5528, 0.0000, 0.0000, 0.0000, 0.0000, 0.0000, 0.0000, 1.0000, -0.0028, -0.0010, -0.0092, 0.0000, 0.0000, 0.0000, 0.0000, 0.0000, 0.0000, 0.0000
0, 0.2575, 83, -0.4936, 0.1849, -0.8660, 0.4939, -0.0199, 0.0605, 0.0000, 0.0000, 0.0000, 0.0000, 0.0000, 0.0000, 1.0000, -0.0029, -0.0009, -0.0092, 0.0000, 0.0000, 0.0000, 0.0000, 0.0000, 0.0000, 0.0000
0, 0.2600, 84, -0.4858, 0.1925, -0.8776, 0.3001, -0.1546, 0.4074, 0.0000, 0.0000, 0.0000, 0.0000, 0.0000, 0.0000, 1.0000, -0.0029, -0.0009, -0.0092, 0.0000, 0.0000, 0.0000, 0.0000, 0.0000, 0.0000, 0.0000
0, 0.2650, 85, -0.4778, 0.1925, -0.8776, -0.2960, -0.1142, 0.2146, 0.0000, 0.0000, 0.0000, 0.0000, 0.0000, 0.0000, 1.0000, -0.0028, -0.0008, -0.0092, 0.0000, 0.0000, 0.0000, 0.0000, 0.0000, 0.0000, 0.0000
0, 0.2675, 86, -0.4698, 0.1808, -0.8775, -0.1636, 0.0395, 0.7527, 0.0000, 0.0000, 0.0000, 0.0000, 0.0000, 0.0000, 1.0000, -0.0029, -0.0009, -0.0092, 0.0000, 0.0000, 0.0000, 0.0000, 0.0000, 0.0000, 0.0000
0, 0.2700, 87, -0.4697, 0.1888, -0.8699, -0.5580, -0.1886, 0.3575, 0.0000, 0.0000, 0.0000, 0.0000, 0.0000, 0.0000, 1.0000, -0.0028, -0.0009, -0.0092, 0.0000, 0.0000, 0.0000, 0.0000, 0.0000, 0.0000, 0.0000
0, 0.2750, 88, -0.4817, 0.1809, -0.8698, -0.0402, 0.2246, -0.2059, 0.0000, 0.0000, 0.0000, 0.0000, 0.0000, 0.0000, 1.0000, -0.0030, -0.0008, -0.0092, 0.0000, 0.0000, 0.0000, 0.0000, 0.0000, 0.0000, 0.0000
0, 0.2775, 89, -0.4858, 0.1926, -0.8738, 0.4314, -0.1530, 0.2687, 0.0000, 0.0000, 0.0000, 0.0000, 0.0000, 0.0000, 1.0000, -0.0030, -0.0008, -0.0092, 0.0000, 0.0000, 0.0000, 0.0000, 0.0000, 0.0000, 0.0000
0, 0.2800, 90, -0.4779, 0.1885, -0.8814, -0.1623, -0.2481, 0.0787, 0.0000, 0.0000, 0.0000, 0.0000, 0.0000, 0.0000, 1.0000, -0.0030, -0.0008, -0.0092, 0.0000, 0.0000, 0.0000, 0.0000, 0.0000, 0.0000, 0.0000
0, 0.2825, 91, -0.4777, 0.1928, -0.8661, 0.2356, -0.5174, -0.4676, 0.0000, 0.0000, 0.0000, 0.0000, 0.0000, 0.0000, 1.0000, -0.0030, -0.0008, -0.0092, 0.0000, 0.0000, 0.0000, 0.0000, 0.0000, 0.0000, 0.0000
0, 0.2850, 92, -0.4737, 0.1810, -0.8698, 0.1672, -0.3844, -0.4691, 0.0000, 0.0000, 0.0000, 0.0000, 0.0000, 0.0000, 1.0000, -0.0031, -0.0008, -0.0092, 0.0000, 0.0000, 0.0000, 0.0000, 0.0000, 0.0000, 0.0000
0, 0.2875, 93, -0.4735, 0.1890, -0.8583, -0.1013, -0.2688, -0.8742, 0.0000, 0.0000, 0.0000, 0.0000, 0.0000, 0.0000, 1.0000, -0.0030, -0.0007, -0.0092, 0.0000, 0.0000, 0.0000, 0.0000, 0.0000, 0.0000, 0.0000
0, 0.2900, 94, -0.4618, 0.1848, -0.8775, -0.5005, -0.0788, -0.8021, 0.0000, 0.0000, 0.0000, 0.0000, 0.0000, 0.0000, 1.0000, -0.0031, -0.0008, -0.0092, 0.0000, 0.0000, 0.0000, 0.0000, 0.0000, 0.0000, 0.0000
0, 0.2925, 95, -0.4698, 0.1887, -0.8737, -0.4238, -0.6134, -0.5882, 0.0000, 0.0000, 0.0000, 0.0000, 0.0000, 0.0000, 1.0000, -0.0030, -0.0008, -0.0092, 0.0000, 0.0000, 0.0000, 0.0000, 0.0000, 0.0000, 0.0000
0, 0.2950, 96, -0.4856, 0.1849, -0.8660, 0.1642, 0.0420, 0.3379, 0.0000, 0.0000, 0.0000, 0.0000, 0.0000, 0.0000, 1.0000, -0.0031, -0.0007, -0.0092, 0.0000, 0.0000, 0.0000, 0.0000, 0.0000, 0.0000, 0.0000
0, 0.2975, 97, -0.4778, 0.1887, -0.8737, 0.3611, 0.0445, 0.1299, 0.0000, 0.0000, 0.0000, 0.0000, 0.0000, 0.0000, 1.0000, -0.0031, -0.0007, -0.0092, 0.0000, 0.0000, 0.0000, 0.0000, 0.0000, 0.0000, 0.0000
0, 0.3000, 98, -0.4696, 0.1968, -0.8623, 0.3032, -0.2868, 0.5461, 0.0000, 0.0000, 0.0000, 0.0000, 0.0000, 0.0000, 1.0000, -0.0030, -0.0007, -0.0092, 0.0000, 0.0000, 0.0000, 0.0000, 0.0000, 0.0000, 0.0000
0, 0.3026, 99, -0.4737, 0.1889, -0.8660, 0.2344, -0.0828, 0.6792, 0.0000, 0.0000, 0.0000, 0.0000, 0.0000, 0.0000, 1.0000, -0.0030, -0.0007, -0.0092, 0.0000, 0.0000, 0.0000, 0.0000, 0.0000, 0.0000, 0.0000
0, 0.3051, 100, -0.4775, 0.1852, -0.8545, -0.2979, -0.0498, 0.0772, 0.0000, 0.0000, 0.0000, 0.0000, 0.0000, 0.0000, 1.0000, -0.0030, -0.0006, -0.0092, 0.0000, 0.0000, 0.0000, 0.0000, 0.0000, 0.0000, 0.0000
0, 0.3100, 101, -0.4857, 0.1966, -0.8700, -0.1014, -0.0490, -0.1988, 0.0000, 0.0000, 0.0000, 0.0000, 0.0000, 0.0000, 1.0000, -0.0030, -0.0006, -0.0092, 0.0000, 0.0000, 0.0000, 0.0000, 0.0000, 0.0000, 0.0000
0, 0.3125, 102, -0.4779, 0.1885, -0.8814, 0.2881, 0.3031, -0.2822, 0.0000, 0.0000, 0.0000, 0.0000, 0.0000, 0.0000, 1.0000, -0.0030, -0.0006, -0.0092, 0.0000, 0.0000, 0.0000, 0.0000, 0.0000, 0.0000, 0.0000
0, 0.3150, 103, -0.4740, 0.1884, -0.8891, -0.1568, -0.5158, 0.2203, 0.0000, 0.0000, 0.0000, 0.0000, 0.0000, 0.0000, 1.0000, -0.0030, -0.0006, -0.0092, 0.0000, 0.0000, 0.0000, 0.0000, 0.0000, 0.0000, 0.0000
0, 0.3175, 104, -0.4737, 0.1889, -0.8660, 0.1033, -0.3770, -0.0599, 0.0000, 0.0000, 0.0000, 0.0000, 0.0000, 0.0000, 1.0000, -0.0030, -0.0006, -0.0092, 0.0000, 0.0000, 0.0000, 0.0000, 0.0000, 0.0000, 0.0000
0, 0.3200, 105, -0.4896, 0.1928, -0.8622, 0.4229, 0.1742, -0.2142, 0.0000, 0.0000, 0.0000, 0.0000, 0.0000, 0.0000, 1.0000, -0.0030, -0.0005, -0.0092, 0.0000, 0.0000, 0.0000, 0.0000, 0.0000, 0.0000, 0.0000
0, 0.3225, 106, -0.4696, 0.1889, -0.8622, 0.5509, 0.3808, -0.2892, 0.0000, 0.0000, 0.0000, 0.0000, 0.0000, 0.0000, 1.0000, -0.0030, -0.0005, -0.0092, 0.0000, 0.0000, 0.0000, 0.0000, 0.0000, 0.0000, 0.0000
0, 0.3250, 107, -0.4736, 0.1889, -0.8622, 0.2374, -0.3621, 0.3451, 0.0000, 0.0000, 0.0000, 0.0000, 0.0000, 0.0000, 1.0000, -0.0030, -0.0005, -0.0092, 0.0000, 0.0000, 0.0000, 0.0000, 0.0000, 0.0000, 0.0000
0, 0.3300, 108, -0.4697, 0.1849, -0.8698, -0.4978, 0.0072, -0.0559, 0.0000, 0.0000, 0.0000, 0.0000, 0.0000, 0.0000, 1.0000, -0.0030, -0.0006, -0.0092, 0.0000, 0.0000, 0.0000, 0.0000, 0.0000, 0.0000, 0.0000
0, 0.3325, 109, -0.4816, 0.1929, -0.8584, -0.3628, -0.2671, -0.3928, 0.0000, 0.0000, 0.0000, 0.0000, 0.0000, 0.0000, 1.0000, -0.0030, -0.0005, -0.0092, 0.0000, 0.0000, 0.0000, 0.0000, 0.0000, 0.0000, 0.0000
0, 0.3350, 110, -0.4775, 0.1930, -0.8545, -0.4937, -0.2671, -0.1862, 0.0000, 0.0000, 0.0000, 0.0000, 0.0000, 0.0000, 1.0000, -0.0029, -0.0005, -0.0092, 0.0000, 0.0000, 0.0000, 0.0000, 0.0000, 0.0000, 0.0000
0, 0.3375, 111, -0.4778, 0.1925, -0.8776, -0.2331, 0.1675, 0.5473, 0.0000, 0.0000, 0.0000, 0.0000, 0.0000, 0.0000, 1.0000, -0.0029, -0.0005, -0.0092, 0.0000, 0.0000, 0.0000, 0.0000, 0.0000, 0.0000, 0.0000
0, 0.3400, 112, -0.4699, 0.1964, -0.8815, 0.1644, -0.2505, -0.5399, 0.0000, 0.0000, 0.0000, 0.0000, 0.0000, 0.0000, 1.0000, -0.0029, -0.0005, -0.0092, 0.0000, 0.0000, 0.0000, 0.0000, 0.0000, 0.0000, 0.0000
0, 0.3450, 113, -0.4695, 0.1969, -0.8546, 0.6281, -0.2248, -0.2098, 0.0000, 0.0000, 0.0000, 0.0000, 0.0000, 0.0000, 1.0000, -0.0028, -0.0006, -0.0092, 0.0000, 0.0000, 0.0000, 0.0000, 0.0000, 0.0000, 0.0000
0, 0.3475, 114, -0.4739, 0.1965, -0.8776, 0.1705, -0.4422, -0.0599, 0.0000, 0.0000, 0.0000, 0.0000, 0.0000, 0.0000, 1.0000, -0.0028, -0.0006, -0.0092, 0.0000, 0.0000, 0.0000, 0.0000, 0.0000, 0.0000, 0.0000
0, 0.3525, 115, -0.4660, 0.1766, -0.8928, 0.2940, 0.0370, -0.0726, 0.0000, 0.0000, 0.0000, 0.0000, 0.0000, 0.0000, 1.0000, -0.0028, -0.0007, -0.0093, 0.0000, 0.0000, 0.0000, 0.0000, 0.0000, 0.0000, 0.0000
0, 0.3550, 116, -0.4657, 0.1809, -0.8736, 0.4278, -0.1695, -0.4110, 0.0000, 0.0000, 0.0000, 0.0000, 0.0000, 0.0000, 1.0000, -0.0029, -0.0008, -0.0093, 0.0000, 0.0000, 0.0000, 0.0000, 0.0000, 0.0000, 0.0000
0, 0.3575, 117, -0.4579, 0.1886, -0.8814, 0.2354, -0.4447, -0.2652, 0.0000, 0.0000, 0.0000, 0.0000, 0.0000, 0.0000, 1.0000, -0.0029, -0.0008, -0.0093, 0.0000, 0.0000, 0.0000, 0.0000, 0.0000, 0.0000, 0.0000
0, 0.3651, 118, -0.4897, 0.1888, -0.8660, -0.2340, 0.0899, 0.1410, 0.0000, 0.0000, 0.0000, 0.0000, 0.0000, 0.0000, 1.0000, -0.0029, -0.0008, -0.0093, 0.0000, 0.0000, 0.0000, 0.0000, 0.0000, 0.0000, 0.0000
0, 0.3676, 119, -0.4816, 0.1889, -0.8622, 0.0258, 0.0072, -0.8826, 0.0000, 0.0000, 0.0000, 0.0000, 0.0000, 0.0000, 1.0000, -0.0029, -0.0007, -0.0093, 0.0000, 0.0000, 0.0000, 0.0000, 0.0000, 0.0000, 0.0000
0, 0.3700, 120, -0.4694, 0.1813, -0.8544, 0.1716, -0.4373, 0.1440, 0.0000, 0.0000, 0.0000, 0.0000, 0.0000, 0.0000, 1.0000, -0.0029, -0.0007, -0.0093, 0.0000, 0.0000, 0.0000, 0.0000, 0.0000, 0.0000, 0.0000
0, 0.3725, 121, -0.4816, 0.1810, -0.8659, 0.6282, 0.0693, 0.7360, 0.0000, 0.0000, 0.0000, 0.0000, 0.0000, 0.0000, 1.0000, -0.0029, -0.0007, -0.0093, 0.0000, 0.0000, 0.0000, 0.0000, 0.0000, 0.0000, 0.0000
0, 0.3750, 122, -0.4854, 0.1852, -0.8506, 0.6952, -0.0703, 0.4656, 0.0000, 0.0000, 0.0000, 0.0000, 0.0000, 0.0000, 1.0000, -0.0029, -0.0006, -0.0093, 0.0000, 0.0000, 0.0000, 0.0000, 0.0000, 0.0000, 0.0000
0, 0.3775, 123, -0.4655, 0.1890, -0.8583, 0.5590, -0.0951, -0.3472, 0.0000, 0.0000, 0.0000, 0.0000, 0.0000, 0.0000, 1.0000, -0.0029, -0.0006, -0.0093, 0.0000, 0.0000, 0.0000, 0.0000, 0.0000, 0.0000, 0.0000
0, 0.3800, 124, -0.4818, 0.1926, -0.8738, 0.6927, -0.0819, -0.0102, 0.0000, 0.0000, 0.0000, 0.0000, 0.0000, 0.0000, 1.0000, -0.0029, -0.0006, -0.0093, 0.0000, 0.0000, 0.0000, 0.0000, 0.0000, 0.0000, 0.0000
0, 0.3875, 125, -0.4699, 0.1886, -0.8814, -0.0365, -0.0514, -0.4041, 0.0000, 0.0000, 0.0000, 0.0000, 0.0000, 0.0000, 1.0000, -0.0031, -0.0007, -0.0093, 0.0000, 0.0000, 0.0000, 0.0000, 0.0000, 0.0000, 0.0000
0, 0.3900, 126, -0.4937, 0.1965, -0.8700, 0.0334, -0.1778, -0.1308, 0.0000, 0.0000, 0.0000, 0.0000, 0.0000, 0.0000, 1.0000, -0.0030, -0.0005, -0.0093, 0.0000, 0.0000, 0.0000, 0.0000, 0.0000, 0.0000, 0.0000
0, 0.3925, 127, -0.4698, 0.1808, -0.8775, -0.2380, 0.1444, -0.4042, 0.0000, 0.0000, 0.0000, 0.0000, 0.0000, 0.0000, 1.0000, -0.0030, -0.0006, -0.0093, 0.0000, 0.0000, 0.0000, 0.0000, 0.0000, 0.0000, 0.0000
0, 0.3950, 128, -0.4696, 0.1850, -0.8622, 0.5639, -0.4389, -0.5440, 0.0000, 0.0000, 0.0000, 0.0000, 0.0000, 0.0000, 1.0000, -0.0030, -0.0006, -0.0093, 0.0000, 0.0000, 0.0000, 0.0000, 0.0000, 0.0000, 0.0000
0, 0.3975, 129, -0.4736, 0.1929, -0.8584, -0.4251, -0.3258, 0.0857, 0.0000, 0.0000, 0.0000, 0.0000, 0.0000, 0.0000, 1.0000, -0.0030, -0.0005, -0.0093, 0.0000, 0.0000, 0.0000, 0.0000, 0.0000, 0.0000, 0.0000
0, 0.4000, 130, -0.4817, 0.1888, -0.8699, 0.0362, -0.1646, 0.4129, 0.0000, 0.0000, 0.0000, 0.0000, 0.0000, 0.0000, 1.0000, -0.0030, -0.0005, -0.0093, 0.0000, 0.0000, 0.0000, 0.0000, 0.0000, 0.0000, 0.0000
0, 0.4050, 131, -0.4699, 0.1925, -0.8814, -0.0323, -0.1787, -0.0614, 0.0000, 0.0000, 0.0000, 0.0000, 0.0000, 0.0000, 1.0000, -0.0029, -0.0006, -0.0093, 0.0000, 0.0000, 0.0000, 0.0000, 0.0000, 0.0000, 0.0000
0, 0.4075, 132, -0.4739, 0.1846, -0.8814, -0.2353, 0.0105, -0.3334, 0.0000, 0.0000, 0.0000, 0.0000, 0.0000, 0.0000, 1.0000, -0.0029, -0.0006, -0.0093, 0.0000, 0.0000, 0.0000, 0.0000, 0.0000, 0.0000, 0.0000
0, 0.4100, 133, -0.4697, 0.1928, -0.8661, -0.0377, 0.0163, -0.4055, 0.0000, 0.0000, 0.0000, 0.0000, 0.0000, 0.0000, 1.0000, -0.0029, -0.0007, -0.0093, 0.0000, 0.0000, 0.0000, 0.0000, 0.0000, 0.0000, 0.0000
0, 0.4125, 134, -0.4777, 0.1809, -0.8736, -0.3050, 0.2840, -0.1338, 0.0000, 0.0000, 0.0000, 0.0000, 0.0000, 0.0000, 1.0000, -0.0029, -0.0007, -0.0093, 0.0000, 0.0000, 0.0000, 0.0000, 0.0000, 0.0000, 0.0000
0, 0.4150, 135, -0.4616, 0.1890, -0.8622, -0.5076, 0.4749, -0.3377, 0.0000, 0.0000, 0.0000, 0.0000, 0.0000, 0.0000, 1.0000, -0.0029, -0.0007, -0.0093, 0.0000, 0.0000, 0.0000, 0.0000, 0.0000, 0.0000, 0.0000
0, 0.4175, 136, -0.4737, 0.1849, -0.8698, -0.1002, -0.2638, -0.6703, 0.0000, 0.0000, 0.0000, 0.0000, 0.0000, 0.0000, 1.0000, -0.0029, -0.0007, -0.0093, 0.0000, 0.0000, 0.0000, 0.0000, 0.0000, 0.0000, 0.0000
0, 0.4200, 137, -0.4738, 0.1887, -0.8737, 0.0436, -0.6438, 0.2190, 0.0000, 0.0000, 0.0000, 0.0000, 0.0000, 0.0000, 1.0000, -0.0029, -0.0007, -0.0093, 0.0000, 0.0000, 0.0000, 0.0000, 0.0000, 0.0000, 0.0000
0, 0.4225, 138, -0.4856, 0.1967, -0.8623, 0.0410, -0.4356, 0.4186, 0.0000, 0.0000, 0.0000, 0.0000, 0.0000, 0.0000, 1.0000, -0.0029, -0.0006, -0.0093, 0.0000, 0.0000, 0.0000, 0.0000, 0.0000, 0.0000, 0.0000
0, 0.4276, 139, -0.4818, 0.1729, -0.8774, 0.3685, -0.2877, 0.4088, 0.0000, 0.0000, 0.0000, 0.0000, 0.0000, 0.0000, 1.0000, -0.0029, -0.0006, -0.0093, 0.0000, 0.0000, 0.0000, 0.0000, 0.0000, 0.0000, 0.0000
0, 0.4301, 140, -0.4775, 0.1773, -0.8582, -0.1086, 0.3576, -0.2073, 0.0000, 0.0000, 0.0000, 0.0000, 0.0000, 0.0000, 1.0000, -0.0030, -0.0006, -0.0093, 0.0000, 0.0000, 0.0000, 0.0000, 0.0000, 0.0000, 0.0000
0, 0.4325, 141, -0.4818, 0.1886, -0.8776, 0.8856, 0.1222, -0.2905, 0.0000, 0.0000, 0.0000, 0.0000, 0.0000, 0.0000, 1.0000, -0.0030, -0.0006, -0.0093, 0.0000, 0.0000, 0.0000, 0.0000, 0.0000, 0.0000, 0.0000
0, 0.4375, 142, -0.4657, 0.1927, -0.8699, -0.0879, -0.7199, 0.0873, 0.0000, 0.0000, 0.0000, 0.0000, 0.0000, 0.0000, 1.0000, -0.0030, -0.0006, -0.0093, 0.0000, 0.0000, 0.0000, 0.0000, 0.0000, 0.0000, 0.0000
0, 0.4400, 143, -0.4697, 0.1967, -0.8661, 0.0379, -0.3034, 0.2799, 0.0000, 0.0000, 0.0000, 0.0000, 0.0000, 0.0000, 1.0000, -0.0029, -0.0006, -0.0093, 0.0000, 0.0000, 0.0000, 0.0000, 0.0000, 0.0000, 0.0000
0, 0.4450, 144, -0.4617, 0.1848, -0.8737, -0.1004, -0.1911, -0.4678, 0.0000, 0.0000, 0.0000, 0.0000, 0.0000, 0.0000, 1.0000, -0.0029, -0.0007, -0.0093, 0.0000, 0.0000, 0.0000, 0.0000, 0.0000, 0.0000, 0.0000
0, 0.4475, 145, -0.4816, 0.1693, -0.8658, -0.1557, -0.5108, 0.4242, 0.0000, 0.0000, 0.0000, 0.0000, 0.0000, 0.0000, 1.0000, -0.0030, -0.0007, -0.0093, 0.0000, 0.0000, 0.0000, 0.0000, 0.0000, 0.0000, 0.0000
0, 0.4500, 146, -0.4817, 0.1888, -0.8699, -0.1607, -0.5340, -0.5273, 0.0000, 0.0000, 0.0000, 0.0000, 0.0000, 0.0000, 1.0000, -0.0030, -0.0006, -0.0093, 0.0000, 0.0000, 0.0000, 0.0000, 0.0000, 0.0000, 0.0000
0, 0.4525, 147, -0.4818, 0.1847, -0.8775, 0.1130, -0.7719, 0.4244, 0.0000, 0.0000, 0.0000, 0.0000, 0.0000, 0.0000, 1.0000, -0.0030, -0.0006, -0.0093, 0.0000, 0.0000, 0.0000, 0.0000, 0.0000, 0.0000, 0.0000
0, 0.4550, 148, -0.4738, 0.1965, -0.8738, -0.2888, -0.5208, 0.2231, 0.0000, 0.0000, 0.0000, 0.0000, 0.0000, 0.0000, 1.0000, -0.0029, -0.0006, -0.0093, 0.0000, 0.0000, 0.0000, 0.0000, 0.0000, 0.0000, 0.0000
0, 0.4575, 149, -0.4737, 0.1966, -0.8700, -0.1603, -0.3853, 0.0136, 0.0000, 0.0000, 0.0000, 0.0000, 0.0000, 0.0000, 1.0000, -0.0029, -0.0006, -0.0093, 0.0000, 0.0000, 0.0000, 0.0000, 0.0000, 0.0000, 0.0000
0, 0.4600, 150, -0.4740, 0.1845, -0.8890, -0.0311, -0.2464, -0.0600, 0.0000, 0.0000, 0.0000, 0.0000, 0.0000, 0.0000, 1.0000, -0.0029, -0.0007, -0.0093, 0.0000, 0.0000, 0.0000, 0.0000, 0.0000, 0.0000, 0.0000
0, 0.4625, 151, -0.4776, 0.2007, -0.8623, 0.1698, -0.0786, 0.9524, 0.0000, 0.0000, 0.0000, 0.0000, 0.0000, 0.0000, 1.0000, -0.0028, -0.0007, -0.0094, 0.0000, 0.0000, 0.0000, 0.0000, 0.0000, 0.0000, 0.0000
0, 0.4650, 152, -0.4778, 0.1886, -0.8776, -0.1638, -0.0349, 0.4822, 0.0000, 0.0000, 0.0000, 0.0000, 0.0000, 0.0000, 1.0000, -0.0028, -0.0007, -0.0094, 0.0000, 0.0000, 0.0000, 0.0000, 0.0000, 0.0000, 0.0000
0, 0.4725, 153, -0.4615, 0.1812, -0.8583, 0.1699, -0.2984, 0.2771, 0.0000, 0.0000, 0.0000, 0.0000, 0.0000, 0.0000, 1.0000, -0.0030, -0.0004, -0.0093, 0.0000, 0.0000, 0.0000, 0.0000, 0.0000, 0.0000, 0.0000
0, 0.4750, 154, -0.4777, 0.1849, -0.8698, 0.3645, -0.0861, 0.3366, 0.0000, 0.0000, 0.0000, 0.0000, 0.0000, 0.0000, 1.0000, -0.0030, -0.0004, -0.0093, 0.0000, 0.0000, 0.0000, 0.0000, 0.0000, 0.0000, 0.0000
0, 0.4775, 155, -0.4737, 0.1848, -0.8737, -0.0418, 0.2907, -0.2753, 0.0000, 0.0000, 0.0000, 0.0000, 0.0000, 0.0000, 1.0000, -0.0030, -0.0005, -0.0093, 0.0000, 0.0000, 0.0000, 0.0000, 0.0000, 0.0000, 0.0000
0, 0.4800, 156, -0.4579, 0.2004, -0.8777, 0.1631, -0.1101, -0.3389, 0.0000, 0.0000, 0.0000, 0.0000, 0.0000, 0.0000, 1.0000, -0.0030, -0.0006, -0.0093, 0.0000, 0.0000, 0.0000, 0.0000, 0.0000, 0.0000, 0.0000
0, 0.4825, 157, -0.4697, 0.1927, -0.8699, 0.4992, -0.3620, -0.0683, 0.0000, 0.0000, 0.0000, 0.0000, 0.0000, 0.0000, 1.0000, -0.0029, -0.0006, -0.0093, 0.0000, 0.0000, 0.0000, 0.0000, 0.0000, 0.0000, 0.0000
0, 0.4875, 158, -0.4656, 0.1890, -0.8622, -0.2312, -0.0440, 0.2118, 0.0000, 0.0000, 0.0000, 0.0000, 0.0000, 0.0000, 1.0000, -0.0029, -0.0007, -0.0094, 0.0000, 0.0000, 0.0000, 0.0000, 0.0000, 0.0000, 0.0000
0, 0.4901, 159, -0.4696, 0.1889, -0.8622, 0.2294, -0.1059, -0.2723, 0.0000, 0.0000, 0.0000, 0.0000, 0.0000, 0.0000, 1.0000, -0.0029, -0.0007, -0.0094, 0.0000, 0.0000, 0.0000, 0.0000, 0.0000, 0.0000, 0.0000
0, 0.4926, 160, -0.4775, 0.1930, -0.8545, 0.2945, 0.1858, 0.4682, 0.0000, 0.0000, 0.0000, 0.0000, 0.0000, 0.0000, 1.0000, -0.0028, -0.0007, -0.0094, 0.0000, 0.0000, 0.0000, 0.0000, 0.0000, 0.0000, 0.0000
0, 0.4950, 161, -0.4658, 0.2006, -0.8700, -0.4268, -0.1870, 0.2188, 0.0000, 0.0000, 0.0000, 0.0000, 0.0000, 0.0000, 1.0000, -0.0028, -0.0007, -0.0094, 0.0000, 0.0000, 0.0000, 0.0000, 0.0000, 0.0000, 0.0000
0, 0.4975, 162, -0.4657, 0.1927, -0.8699, -0.3648, -0.1300, -0.3277, 0.0000, 0.0000, 0.0000, 0.0000, 0.0000, 0.0000, 1.0000, -0.0027, -0.0007, -0.0094, 0.0000, 0.0000, 0.0000, 0.0000, 0.0000, 0.0000, 0.0000
0, 0.5000, 163, -0.4776, 0.1968, -0.8584, 0.0906, 0.4444, 0.2628, 0.0000, 0.0000, 0.0000, 0.0000, 0.0000, 0.0000, 1.0000, -0.0027, -0.0007, -0.0093, 0.0000, 0.0000, 0.0000, 0.0000, 0.0000, 0.0000, 0.0000
0, 0.5075, 164, -0.4699, 0.1885, -0.8852, -0.3654, 0.0138, 0.0092, 0.0000, 0.0000, 0.0000, 0.0000, 0.0000, 0.0000, 1.0000, -0.0025, -0.0009, -0.0094, 0.0000, 0.0000, 0.0000, 0.0000, 0.0000, 0.0000, 0.0000
0, 0.5100, 165, -0.4657, 0.1849, -0.8698, -0.0258, -0.3687, 0.4866, 0.0000, 0.0000, 0.0000, 0.0000, 0.0000, 0.0000, 1.0000, -0.0026, -0.0009, -0.0094, 0.0000, 0.0000, 0.0000, 0.0000, 0.0000, 0.0000, 0.0000
0, 0.5125, 166, -0.4777, 0.1848, -0.8737, -0.3570, -0.4605, 0.0192, 0.0000, 0.0000, 0.0000, 0.0000, 0.0000, 0.0000, 1.0000, -0.0026, -0.0009, -0.0094, 0.0000, 0.0000, 0.0000, 0.0000, 0.0000, 0.0000, 0.0000
0, 0.5150, 167, -0.4779, 0.1846, -0.8814, -0.1696, 0.0114, -0.4027, 0.0000, 0.0000, 0.0000, 0.0000, 0.0000, 0.0000, 1.0000, -0.0026, -0.0009, -0.0094, 0.0000, 0.0000, 0.0000, 0.0000, 0.0000, 0.0000, 0.0000
0, 0.5250, 168, -0.4776, 0.1692, -0.8697, 0.2968, -0.0968, -0.0018, 0.0000, 0.0000, 0.0000, 0.0000, 0.0000, 0.0000, 1.0000, -0.0029, -0.0008, -0.0094, 0.0000, 0.0000, 0.0000, 0.0000, 0.0000, 0.0000, 0.0000
0, 0.5275, 169, -0.4939, 0.1964, -0.8776, -0.0437, 0.3551, -0.4126, 0.0000, 0.0000, 0.0000, 0.0000, 0.0000, 0.0000, 1.0000, -0.0029, -0.0008, -0.0094, 0.0000, 0.0000, 0.0000, 0.0000, 0.0000, 0.0000, 0.0000
0, 0.5300, 170, -0.4976, 0.1849, -0.8660, 0.3654, -0.1555, 0.2701, 0.0000, 0.0000, 0.0000, 0.0000, 0.0000, 0.0000, 1.0000, -0.0029, -0.0007, -0.0094, 0.0000, 0.0000, 0.0000, 0.0000, 0.0000, 0.0000, 0.0000
0, 0.5325, 171, -0.4737, 0.1770, -0.8698, 0.0295, 0.1709, 0.2699, 0.0000, 0.0000, 0.0000, 0.0000, 0.0000, 0.0000, 1.0000, -0.0030, -0.0007, -0.0094, 0.0000, 0.0000, 0.0000, 0.0000, 0.0000, 0.0000, 0.0000
0, 0.5350, 172, -0.4656, 0.1850, -0.8660, -0.2995, 0.0163, 0.0079, 0.0000, 0.0000, 0.0000, 0.0000, 0.0000, 0.0000, 1.0000, -0.0030, -0.0008, -0.0094, 0.0000, 0.0000, 0.0000, 0.0000, 0.0000, 0.0000, 0.0000
0, 0.5400, 173, -0.4618, 0.1808, -0.8775, -0.1700, 0.0097, -0.4707, 0.0000, 0.0000, 0.0000, 0.0000, 0.0000, 0.0000, 1.0000, -0.0031, -0.0008, -0.0094, 0.0000, 0.0000, 0.0000, 0.0000, 0.0000, 0.0000, 0.0000
0, 0.5425, 174, -0.4697, 0.1848, -0.8737, 0.5616, -0.1563, -0.0739, 0.0000, 0.0000, 0.0000, 0.0000, 0.0000, 0.0000, 1.0000, -0.0031, -0.0009, -0.0094, 0.0000, 0.0000, 0.0000, 0.0000, 0.0000, 0.0000, 0.0000
0, 0.5475, 175, -0.4779, 0.1885, -0.8814, -0.1010, -0.2671, -0.8062, 0.0000, 0.0000, 0.0000, 0.0000, 0.0000, 0.0000, 1.0000, -0.0032, -0.0008, -0.0094, 0.0000, 0.0000, 0.0000, 0.0000, 0.0000, 0.0000, 0.0000
0, 0.5500, 176, -0.4658, 0.1887, -0.8737, 0.2323, -0.3125, -0.4039, 0.0000, 0.0000, 0.0000, 0.0000, 0.0000, 0.0000, 1.0000, -0.0032, -0.0009, -0.0094, 0.0000, 0.0000, 0.0000, 0.0000, 0.0000, 0.0000, 0.0000
0, 0.5526, 177, -0.4856, 0.1810, -0.8659, -0.3544, -0.5216, 0.2925, 0.0000, 0.0000, 0.0000, 0.0000, 0.0000, 0.0000, 1.0000, -0.0032, -0.0008, -0.0094, 0.0000, 0.0000, 0.0000, 0.0000, 0.0000, 0.0000, 0.0000
0, 0.5551, 178, -0.4736, 0.1810, -0.8660, -0.4292, -0.1986, -0.2569, 0.0000, 0.0000, 0.0000, 0.0000, 0.0000, 0.0000, 1.0000, -0.0032, -0.0008, -0.0094, 0.0000, 0.0000, 0.0000, 0.0000, 0.0000, 0.0000, 0.0000
0, 0.5575, 179, -0.4658, 0.1887, -0.8776, -0.0996, -0.0407, 0.1410, 0.0000, 0.0000, 0.0000, 0.0000, 0.0000, 0.0000, 1.0000, -0.0032, -0.0009, -0.0094, 0.0000, 0.0000, 0.0000, 0.0000, 0.0000, 0.0000, 0.0000
0, 0.5600, 180, -0.4696, 0.1850, -0.8660, -0.5582, -0.2630, 0.0871, 0.0000, 0.0000, 0.0000, 0.0000, 0.0000, 0.0000, 1.0000, -0.0032, -0.0009, -0.0094, 0.0000, 0.0000, 0.0000, 0.0000, 0.0000, 0.0000, 0.0000
0, 0.5625, 181, -0.4698, 0.1730, -0.8774, -0.2315, 0.1014, 0.6167, 0.0000, 0.0000, 0.0000, 0.0000, 0.0000, 0.0000, 0.9999, -0.0032, -0.0010, -0.0094, 0.0000, 0.0000, 0.0000, 0.0000, 0.0000, 0.0000, 0.0000
0, 0.5650, 182, -0.4856, 0.1928, -0.8622, -0.6947, 0.0047, 0.1521, 0.0000, 0.0000, 0.0000, 0.0000, 0.0000, 0.0000, 1.0000, -0.0032, -0.0009, -0.0094, 0.0000, 0.0000, 0.0000, 0.0000, 0.0000, 0.0000, 0.0000
0, 0.5675, 183, -0.4698, 0.1966, -0.8738, 0.2333, -0.0877, 0.4753, 0.0000, 0.0000, 0.0000, 0.0000, 0.0000, 0.0000, 1.0000, -0.0031, -0.0009, -0.0094, 0.0000, 0.0000, 0.0000, 0.0000, 0.0000, 0.0000, 0.0000
0, 0.5700, 184, -0.4698, 0.1847, -0.8775, 0.0998, -0.0266, 0.4087, 0.0000, 0.0000, 0.0000, 0.0000, 0.0000, 0.0000, 1.0000, -0.0032, -0.0010, -0.0094, 0.0000, 0.0000, 0.0000, 0.0000, 0.0000, 0.0000, 0.0000
0, 0.5725, 185, -0.4738, 0.1807, -0.8813, -0.0341, 0.0329, 0.2741, 0.0000, 0.0000, 0.0000, 0.0000, 0.0000, 0.0000, 0.9999, -0.0032, -0.0010, -0.0094, 0.0000, 0.0000, 0.0000, 0.0000, 0.0000, 0.0000, 0.0000
0, 0.5775, 186, -0.4816, 0.1929, -0.8584, 0.0983, -0.0332, 0.1368, 0.0000, 0.0000, 0.0000, 0.0000, 0.0000, 0.0000, 1.0000, -0.0031, -0.0009, -0.0094, 0.0000, 0.0000, 0.0000, 0.0000, 0.0000, 0.0000, 0.0000
0, 0.5800, 187, -0.4696, 0.1850, -0.8660, -0.1003, -0.0440, 0.0051, 0.0000, 0.0000, 0.0000, 0.0000, 0.0000, 0.0000, 1.0000, -0.0031, -0.0009, -0.0094, 0.0000, 0.0000, 0.0000, 0.0000, 0.0000, 0.0000, 0.0000
0, 0.5825, 188, -0.4659, 0.2042, -0.8816, -0.3057, 0.2807, -0.2697, 0.0000, 0.0000, 0.0000, 0.0000, 0.0000, 0.0000, 1.0000, -0.0031, -0.0010, -0.0094, 0.0000, 0.0000, 0.0000, 0.0000, 0.0000, 0.0000, 0.0000
0, 0.5875, 189, -0.4816, 0.1811, -0.8621, 0.2343, -0.4497, -0.4691, 0.0000, 0.0000, 0.0000, 0.0000, 0.0000, 0.0000, 1.0000, -0.0031, -0.0009, -0.0094, 0.0000, 0.0000, 0.0000, 0.0000, 0.0000, 0.0000, 0.0000
0, 0.5900, 190, -0.4819, 0.1885, -0.8814, 0.6257, 0.0578, 0.2602, 0.0000, 0.0000, 0.0000, 0.0000, 0.0000, 0.0000, 1.0000, -0.0031, -0.0009, -0.0094, 0.0000, 0.0000, 0.0000, 0.0000, 0.0000, 0.0000, 0.0000
0, 0.5925, 191, -0.4817, 0.1888, -0.8660, 0.1023, -0.2348, 0.2091, 0.0000, 0.0000, 0.0000, 0.0000, 0.0000, 0.0000, 1.0000, -0.0031, -0.0009, -0.0094, 0.0000, 0.0000, 0.0000, 0.0000, 0.0000, 0.0000, 0.0000
0, 0.5950, 192, -0.4818, 0.1965, -0.8738, -0.4252, -0.2531, 0.2882, 0.0000, 0.0000, 0.0000, 0.0000, 0.0000, 0.0000, 1.0000, -0.0030, -0.0008, -0.0094, 0.0000, 0.0000, 0.0000, 0.0000, 0.0000, 0.0000, 0.0000
0, 0.5975, 193, -0.4737, 0.1888, -0.8699, -0.1642, -0.1836, -0.0586, 0.0000, 0.0000, 0.0000, 0.0000, 0.0000, 0.0000, 1.0000, -0.0030, -0.0008, -0.0094, 0.0000, 0.0000, 0.0000, 0.0000, 0.0000, 0.0000, 0.0000
0, 0.6000, 194, -0.4818, 0.1965, -0.8738, -0.0978, -0.2522, -0.1945, 0.0000, 0.0000, 0.0000, 0.0000, 0.0000, 0.0000, 1.0000, -0.0030, -0.0008, -0.0094, 0.0000, 0.0000, 0.0000, 0.0000, 0.0000, 0.0000, 0.0000
0, 0.6025, 195, -0.4777, 0.1888, -0.8699, -0.5605, -0.2002, -0.1182, 0.0000, 0.0000, 0.0000, 0.0000, 0.0000, 0.0000, 1.0000, -0.0029, -0.0008, -0.0094, 0.0000, 0.0000, 0.0000, 0.0000, 0.0000, 0.0000, 0.0000
0, 0.6050, 196, -0.4699, 0.2042, -0.8816, -0.5592, -0.4878, -0.7922, 0.0000, 0.0000, 0.0000, 0.0000, 0.0000, 0.0000, 1.0000, -0.0029, -0.0008, -0.0094, 0.0000, 0.0000, 0.0000, 0.0000, 0.0000, 0.0000, 0.0000
0, 0.6075, 197, -0.4658, 0.1847, -0.8775, 0.3670, -0.4414, -0.3359, 0.0000, 0.0000, 0.0000, 0.0000, 0.0000, 0.0000, 1.0000, -0.0029, -0.0008, -0.0094, 0.0000, 0.0000, 0.0000, 0.0000, 0.0000, 0.0000, 0.0000
0, 0.6100, 198, -0.4655, 0.1891, -0.8545, 0.4977, -0.1488, 0.3352, 0.0000, 0.0000, 0.0000, 0.0000, 0.0000, 0.0000, 1.0000, -0.0029, -0.0008, -0.0094, 0.0000, 0.0000, 0.0000, 0.0000, 0.0000, 0.0000, 0.0000
0, 0.6151, 199, -0.4577, 0.1967, -0.8700, -0.3590, -0.1762, 0.5572, 0.0000, 0.0000, 0.0000, 0.0000, 0.0000, 0.0000, 1.0000, -0.0029, -0.0010, -0.0094, 0.0000, 0.0000, 0.0000, 0.0000, 0.0000, 0.0000, 0.0000
0, 0.6176, 200, -0.4738, 0.1887, -0.8737, -0.2988, -0.1275, -0.3291, 0.0000, 0.0000, 0.0000, 0.0000, 0.0000, 0.0000, 1.0000, -0.0029, -0.0010, -0.0094, 0.0000, 0.0000, 0.0000, 0.0000, 0.0000, 0.0000, 0.0000
0, 0.6225, 201, -0.4694, 0.1931, -0.8507, -0.4094, -1.2066, 0.1042, 0.0000, 0.0000, 0.0000, 0.0000, 0.0000, 0.0000, 1.0000, -0.0028, -0.0010, -0.0094, 0.0000, 0.0000, 0.0000, 0.0000, 0.0000, 0.0000, 0.0000
0, 0.6250, 202, -0.4816, 0.1929, -0.8584, 0.0414, -0.4340, 0.4866, 0.0000, 0.0000, 0.0000, 0.0000, 0.0000, 0.0000, 1.0000, -0.0028, -0.0009, -0.0094, 0.0000, 0.0000, 0.0000, 0.0000, 0.0000, 0.0000, 0.0000
0, 0.6275, 203, -0.4898, 0.1926, -0.8738, 0.4341, -0.2868, 0.3395, 0.0000, 0.0000, 0.0000, 0.0000, 0.0000, 0.0000, 1.0000, -0.0028, -0.0009, -0.0094, 0.0000, 0.0000, 0.0000, 0.0000, 0.0000, 0.0000, 0.0000
0, 0.6300, 204, -0.4776, 0.1850, -0.8621, 0.0385, -0.4472, -0.0571, 0.0000, 0.0000, 0.0000, 0.0000, 0.0000, 0.0000, 1.0000, -0.0028, -0.0008, -0.0094, 0.0000, 0.0000, 0.0000, 0.0000, 0.0000, 0.0000, 0.0000
0, 0.6325, 205, -0.4897, 0.2005, -0.8662, -0.0268, -0.5935, -0.3927, 0.0000, 0.0000, 0.0000, 0.0000, 0.0000, 0.0000, 1.0000, -0.0027, -0.0007, -0.0094, 0.0000, 0.0000, 0.0000, 0.0000, 0.0000, 0.0000, 0.0000
0, 0.6350, 206, -0.4737, 0.1888, -0.8699, -0.4356, 0.1386, -0.3320, 0.0000, 0.0000, 0.0000, 0.0000, 0.0000, 0.0000, 1.0000, -0.0027, -0.0007, -0.0094, 0.0000, 0.0000, 0.0000, 0.0000, 0.0000, 0.0000, 0.0000
0, 0.6400, 207, -0.4658, 0.1847, -0.8775, -0.0948, -0.3117, 0.1467, 0.0000, 0.0000, 0.0000, 0.0000, 0.0000, 0.0000, 1.0000, -0.0028, -0.0009, -0.0094, 0.0000, 0.0000, 0.0000, 0.0000, 0.0000, 0.0000, 0.0000
0, 0.6425, 208, -0.4737, 0.1770, -0.8736, -0.3578, -0.2440, 0.5586, 0.0000, 0.0000, 0.0000, 0.0000, 0.0000, 0.0000, 1.0000, -0.0028, -0.0009, -0.0094, 0.0000, 0.0000, 0.0000, 0.0000, 0.0000, 0.0000, 0.0000
0, 0.6475, 209, -0.4897, 0.1888, -0.8660, 0.1095, -0.7884, -0.2553, 0.0000, 0.0000, 0.0000, 0.0000, 0.0000, 0.0000, 1.0000, -0.0028, -0.0008, -0.0094, 0.0000, 0.0000, 0.0000, 0.0000, 0.0000, 0.0000, 0.0000
0, 0.6500, 210, -0.4736, 0.1889, -0.8622, -0.3660, -0.0622, -0.3291, 0.0000, 0.0000, 0.0000, 0.0000, 0.0000, 0.0000, 1.0000, -0.0028, -0.0008, -0.0094, 0.0000, 0.0000, 0.0000, 0.0000, 0.0000, 0.0000, 0.0000
0, 0.6525, 211, -0.4738, 0.2005, -0.8738, -0.5625, -0.0631, -0.0531, 0.0000, 0.0000, 0.0000, 0.0000, 0.0000, 0.0000, 1.0000, -0.0027, -0.0008, -0.0094, 0.0000, 0.0000, 0.0000, 0.0000, 0.0000, 0.0000, 0.0000
0, 0.6550, 212, -0.4698, 0.1887, -0.8737, -0.2345, 0.1609, 0.2755, 0.0000, 0.0000, 0.0000, 0.0000, 0.0000, 0.0000, 1.0000, -0.0027, -0.0008, -0.0094, 0.0000, 0.0000, 0.0000, 0.0000, 0.0000, 0.0000, 0.0000
0, 0.6575, 213, -0.4774, 0.1891, -0.8507, -0.1715, 0.0758, -0.5401, 0.0000, 0.0000, 0.0000, 0.0000, 0.0000, 0.0000, 1.0000, -0.0027, -0.0008, -0.0094, 0.0000, 0.0000, 0.0000, 0.0000, 0.0000, 0.0000, 0.0000
0, 0.6600, 214, -0.4817, 0.1809, -0.8698, 0.0925, 0.2328, -0.0727, 0.0000, 0.0000, 0.0000, 0.0000, 0.0000, 0.0000, 1.0000, -0.0027, -0.0007, -0.0094, 0.0000, 0.0000, 0.0000, 0.0000, 0.0000, 0.0000, 0.0000
0, 0.6650, 215, -0.4696, 0.1929, -0.8622, -0.6377, 0.4054, -0.1976, 0.0000, 0.0000, 0.0000, 0.0000, 0.0000, 0.0000, 1.0000, -0.0027, -0.0007, -0.0094, 0.0000, 0.0000, 0.0000, 0.0000, 0.0000, 0.0000, 0.0000
0, 0.6675, 216, -0.4619, 0.1965, -0.8776, -0.0304, -0.2431, 0.0759, 0.0000, 0.0000, 0.0000, 0.0000, 0.0000, 0.0000, 1.0000, -0.0026, -0.0009, -0.0094, 0.0000, 0.0000, 0.0000, 0.0000, 0.0000, 0.0000, 0.0000
0, 0.6750, 217, -0.4737, 0.1810, -0.8698, -0.1686, 0.0163, -0.1988, 0.0000, 0.0000, 0.0000, 0.0000, 0.0000, 0.0000, 1.0000, -0.0027, -0.0010, -0.0094, 0.0000, 0.0000, 0.0000, 0.0000, 0.0000, 0.0000, 0.0000
0, 0.6776, 218, -0.4657, 0.1889, -0.8660, 0.2390, -0.4282, 0.4145, 0.0000, 0.0000, 0.0000, 0.0000, 0.0000, 0.0000, 1.0000, -0.0027, -0.0010, -0.0094, 0.0000, 0.0000, 0.0000, 0.0000, 0.0000, 0.0000, 0.0000
0, 0.6825, 219, -0.4817, 0.1888, -0.8660, -0.2268, -0.0969, 0.8249, 0.0000, 0.0000, 0.0000, 0.0000, 0.0000, 0.0000, 1.0000, -0.0027, -0.0009, -0.0094, 0.0000, 0.0000, 0.0000, 0.0000, 0.0000, 0.0000, 0.0000
0, 0.6850, 220, -0.4898, 0.1807, -0.8775, -0.6304, 0.1460, 0.2838, 0.0000, 0.0000, 0.0000, 0.0000, 0.0000, 0.0000, 1.0000, -0.0027, -0.0009, -0.0094, 0.0000, 0.0000, 0.0000, 0.0000, 0.0000, 0.0000, 0.0000
0, 0.6875, 221, -0.4698, 0.1847, -0.8775, -0.5024, 0.3526, 0.2088, 0.0000, 0.0000, 0.0000, 0.0000, 0.0000, 0.0000, 1.0000, -0.0027, -0.0009, -0.0094, 0.0000, 0.0000, 0.0000, 0.0000, 0.0000, 0.0000, 0.0000
0, 0.6900, 222, -0.4655, 0.1891, -0.8545, -0.4999, -0.0027, -0.4637, 0.0000, 0.0000, 0.0000, 0.0000, 0.0000, 0.0000, 1.0000, -0.0027, -0.0009, -0.0094, 0.0000, 0.0000, 0.0000, 0.0000, 0.0000, 0.0000, 0.0000
0, 0.6925, 223, -0.4695, 0.1733, -0.8620, 0.4996, -0.3604, -0.0003, 0.0000, 0.0000, 0.0000, 0.0000, 0.0000, 0.0000, 1.0000, -0.0028, -0.0009, -0.0094, 0.0000, 0.0000, 0.0000, 0.0000, 0.0000, 0.0000, 0.0000
0, 0.6950, 224, -0.5578, 0.1805, -0.8775, -0.2308, -0.2622, -0.3956, 0.0000, 0.0000, 0.0000, 0.0000, 0.0000, 0.0000, 1.0000, -0.0028, -0.0008, -0.0094, 0.0000, 0.0000, 0.0000, 0.0000, 0.0000, 0.0000, 0.0000
0, 0.6975, 225, -0.4778, 0.1926, -0.8738, 0.2893, 0.0883, -0.7537, 0.0000, 0.0000, 0.0000, 0.0000, 0.0000, 0.0000, 1.0000, -0.0028, -0.0008, -0.0094, 0.0000, 0.0000, 0.0000, 0.0000, 0.0000, 0.0000, 0.0000
0, 0.7000, 226, -0.4818, 0.1807, -0.8813, -0.0420, 0.4361, 0.1297, 0.0000, 0.0000, 0.0000, 0.0000, 0.0000, 0.0000, 1.0000, -0.0028, -0.0008, -0.0094, 0.0000, 0.0000, 0.0000, 0.0000, 0.0000, 0.0000, 0.0000
0, 0.7025, 227, -0.4737, 0.1691, -0.8735, 0.2230, 0.2312, -0.3474, 0.0000, 0.0000, 0.0000, 0.0000, 0.0000, 0.0000, 1.0000, -0.0029, -0.0008, -0.0094, 0.0000, 0.0000, 0.0000, 0.0000, 0.0000, 0.0000, 0.0000
0, 0.7050, 228, -0.4778, 0.1808, -0.8775, -0.1017, -0.0506, -0.2668, 0.0000, 0.0000, 0.0000, 0.0000, 0.0000, 0.0000, 1.0000, -0.0030, -0.0008, -0.0094, 0.0000, 0.0000, 0.0000, 0.0000, 0.0000, 0.0000, 0.0000
0, 0.7075, 229, -0.4738, 0.1925, -0.8776, -0.2411, 0.2766, -0.5429, 0.0000, 0.0000, 0.0000, 0.0000, 0.0000, 0.0000, 1.0000, -0.0030, -0.0008, -0.0094, 0.0000, 0.0000, 0.0000, 0.0000, 0.0000, 0.0000, 0.0000
0, 0.7100, 230, -0.4737, 0.1927, -0.8699, 0.0867, 0.4262, -0.4848, 0.0000, 0.0000, 0.0000, 0.0000, 0.0000, 0.0000, 1.0000, -0.0030, -0.0008, -0.0094, 0.0000, 0.0000, 0.0000, 0.0000, 0.0000, 0.0000, 0.0000
0, 0.7125, 231, -0.4775, 0.1891, -0.8545, -0.1046, -0.0638, -0.8105, 0.0000, 0.0000, 0.0000, 0.0000, 0.0000, 0.0000, 1.0000, -0.0029, -0.0008, -0.0093, 0.0000, 0.0000, 0.0000, 0.0000, 0.0000, 0.0000, 0.0000
0, 0.7200, 232, -0.4696, 0.1889, -0.8622, 0.5722, -0.4735, 0.8167, 0.0000, 0.0000, 0.0000, 0.0000, 0.0000, 0.0000, 1.0000, -0.0028, -0.0008, -0.0093, 0.0000, 0.0000, 0.0000, 0.0000, 0.0000, 0.0000, 0.0000
0, 0.7225, 233, -0.4698, 0.1926, -0.8776, -0.8190, -0.4052, 0.2314, 0.0000, 0.0000, 0.0000, 0.0000, 0.0000, 0.0000, 1.0000, -0.0028, -0.0008, -0.0093, 0.0000, 0.0000, 0.0000, 0.0000, 0.0000, 0.0000, 0.0000
0, 0.7250, 234, -0.4777, 0.1888, -0.8660, -0.5610, -0.1292, 0.0163, 0.0000, 0.0000, 0.0000, 0.0000, 0.0000, 0.0000, 1.0000, -0.0028, -0.0008, -0.0093, 0.0000, 0.0000, 0.0000, 0.0000, 0.0000, 0.0000, 0.0000
0, 0.7275, 235, -0.4697, 0.2006, -0.8662, 0.0993, -0.1753, -0.1322, 0.0000, 0.0000, 0.0000, 0.0000, 0.0000, 0.0000, 1.0000, -0.0026, -0.0008, -0.0093, 0.0000, 0.0000, 0.0000, 0.0000, 0.0000, 0.0000, 0.0000
0, 0.7300, 236, -0.4817, 0.1809, -0.8698, 0.0293, -0.1233, -0.6759, 0.0000, 0.0000, 0.0000, 0.0000, 0.0000, 0.0000, 1.0000, -0.0027, -0.0008, -0.0093, 0.0000, 0.0000, 0.0000, 0.0000, 0.0000, 0.0000, 0.0000
0, 0.7325, 237, -0.4895, 0.1851, -0.8545, 0.0963, 0.1039, 0.2020, 0.0000, 0.0000, 0.0000, 0.0000, 0.0000, 0.0000, 1.0000, -0.0027, -0.0005, -0.0093, 0.0000, 0.0000, 0.0000, 0.0000, 0.0000, 0.0000, 0.0000
0, 0.7350, 238, -0.4616, 0.1850, -0.8660, -0.3603, -0.4026, -0.3900, 0.0000, 0.0000, 0.0000, 0.0000, 0.0000, 0.0000, 1.0000, -0.0027, -0.0006, -0.0093, 0.0000, 0.0000, 0.0000, 0.0000, 0.0000, 0.0000, 0.0000
0, 0.7375, 239, -0.4738, 0.1965, -0.8738, 0.3588, 0.1073, -0.0755, 0.0000, 0.0000, 0.0000, 0.0000, 0.0000, 0.0000, 1.0000, -0.0026, -0.0006, -0.0093, 0.0000, 0.0000, 0.0000, 0.0000, 0.0000, 0.0000, 0.0000
0, 0.7401, 240, -0.4738, 0.2005, -0.8738, 0.0295, 0.1709, 0.2699, 0.0000, 0.0000, 0.0000, 0.0000, 0.0000, 0.0000, 1.0000, -0.0025, -0.0006, -0.0093, 0.0000, 0.0000, 0.0000, 0.0000, 0.0000, 0.0000, 0.0000
0, 0.7426, 241, -0.4775, 0.1851, -0.8583, -0.7594, -0.0656, 0.1549, 0.0000, 0.0000, 0.0000, 0.0000, 0.0000, 0.0000, 1.0000, -0.0025, -0.0006, -0.0093, 0.0000, 0.0000, 0.0000, 0.0000, 0.0000, 0.0000, 0.0000
0, 0.7450, 242, -0.4657, 0.2164, -0.8625, -0.3677, 0.0766, -0.1961, 0.0000, 0.0000, 0.0000, 0.0000, 0.0000, 0.0000, 1.0000, -0.0023, -0.0007, -0.0092, 0.0000, 0.0000, 0.0000, 0.0000, 0.0000, 0.0000, 0.0000
0, 0.7475, 243, -0.4657, 0.1810, -0.8698, 0.4885, 0.1751, -0.2836, 0.0000, 0.0000, 0.0000, 0.0000, 0.0000, 0.0000, 1.0000, -0.0024, -0.0007, -0.0093, 0.0000, 0.0000, 0.0000, 0.0000, 0.0000, 0.0000, 0.0000
0, 0.7500, 244, -0.4778, 0.1887, -0.8737, 0.1577, 0.2320, -0.2100, 0.0000, 0.0000, 0.0000, 0.0000, 0.0000, 0.0000, 1.0000, -0.0024, -0.0007, -0.0093, 0.0000, 0.0000, 0.0000, 0.0000, 0.0000, 0.0000, 0.0000
0, 0.7550, 245, -0.4816, 0.2006, -0.8623, -0.0992, -0.2588, -0.4664, 0.0000, 0.0000, 0.0000, 0.0000, 0.0000, 0.0000, 1.0000, -0.0023, -0.0006, -0.0092, 0.0000, 0.0000, 0.0000, 0.0000, 0.0000, 0.0000, 0.0000
0, 0.7575, 246, -0.4817, 0.1848, -0.8737, -0.2372, 0.0750, -0.4707, 0.0000, 0.0000, 0.0000, 0.0000, 0.0000, 0.0000, 1.0000, -0.0023, -0.0006, -0.0092, 0.0000, 0.0000, 0.0000, 0.0000, 0.0000, 0.0000, 0.0000
0, 0.7625, 247, -0.4776, 0.1928, -0.8622, 0.5585, 0.1230, 0.2602, 0.0000, 0.0000, 0.0000, 0.0000, 0.0000, 0.0000, 1.0000, -0.0023, -0.0006, -0.0092, 0.0000, 0.0000, 0.0000, 0.0000, 0.0000, 0.0000, 0.0000
0, 0.7650, 248, -0.4736, 0.1810, -0.8660, 0.4317, -0.2984, -0.1363, 0.0000, 0.0000, 0.0000, 0.0000, 0.0000, 0.0000, 1.0000, -0.0024, -0.0006, -0.0092, 0.0000, 0.0000, 0.0000, 0.0000, 0.0000, 0.0000, 0.0000
0, 0.7675, 249, -0.4777, 0.1927, -0.8699, 0.2181, 0.5749, -0.1506, 0.0000, 0.0000, 0.0000, 0.0000, 0.0000, 0.0000, 1.0000, -0.0024, -0.0006, -0.0092, 0.0000, 0.0000, 0.0000, 0.0000, 0.0000, 0.0000, 0.0000
0, 0.7725, 250, -0.4778, 0.1887, -0.8737, 0.1752, -0.4934, 0.6212, 0.0000, 0.0000, 0.0000, 0.0000, 0.0000, 0.0000, 1.0000, -0.0024, -0.0005, -0.0092, 0.0000, 0.0000, 0.0000, 0.0000, 0.0000, 0.0000, 0.0000
0, 0.7750, 251, -0.4659, 0.1885, -0.8852, -0.3620, 0.1031, 0.8913, 0.0000, 0.0000, 0.0000, 0.0000, 0.0000, 0.0000, 1.0000, -0.0024, -0.0006, -0.0092, 0.0000, 0.0000, 0.0000, 0.0000, 0.0000, 0.0000, 0.0000
0, 0.7775, 252, -0.4815, 0.1772, -0.8621, 0.1660, 0.0503, 0.6777, 0.0000, 0.0000, 0.0000, 0.0000, 0.0000, 0.0000, 1.0000, -0.0025, -0.0006, -0.0092, 0.0000, 0.0000, 0.0000, 0.0000, 0.0000, 0.0000, 0.0000
0, 0.7800, 253, -0.4817, 0.1848, -0.8737, -0.0981, -0.2539, -0.2625, 0.0000, 0.0000, 0.0000, 0.0000, 0.0000, 0.0000, 1.0000, -0.0025, -0.0005, -0.0092, 0.0000, 0.0000, 0.0000, 0.0000, 0.0000, 0.0000, 0.0000
0, 0.7825, 254, -0.4775, 0.1773, -0.8582, 0.0919, 0.1568, -0.4111, 0.0000, 0.0000, 0.0000, 0.0000, 0.0000, 0.0000, 1.0000, -0.0026, -0.0005, -0.0092, 0.0000, 0.0000, 0.0000, 0.0000, 0.0000, 0.0000, 0.0000
0, 0.7850, 255, -0.4736, 0.1771, -0.8659, -0.0893, -0.5794, 0.2883, 0.0000, 0.0000, 0.0000, 0.0000, 0.0000, 0.0000, 1.0000, -0.0026, -0.0005, -0.0092, 0.0000, 0.0000, 0.0000, 0.0000, 0.0000, 0.0000, 0.0000
0, 0.7925, 256, -0.4817, 0.1967, -0.8661, -0.2385, 0.2154, -0.2697, 0.0000, 0.0000, 0.0000, 0.0000, 0.0000, 0.0000, 1.0000, -0.0026, -0.0006, -0.0092, 0.0000, 0.0000, 0.0000, 0.0000, 0.0000, 0.0000, 0.0000
0, 0.7950, 257, -0.4896, 0.1928, -0.8622, -0.3632, -0.0490, 0.2146, 0.0000, 0.0000, 0.0000, 0.0000, 0.0000, 0.0000, 1.0000, -0.0026, -0.0005, -0.0092, 0.0000, 0.0000, 0.0000, 0.0000, 0.0000, 0.0000, 0.0000
0, 0.8000, 258, -0.4778, 0.1808, -0.8775, 0.0998, -0.2464, -0.2667, 0.0000, 0.0000, 0.0000, 0.0000, 0.0000, 0.0000, 1.0000, -0.0027, -0.0005, -0.0092, 0.0000, 0.0000, 0.0000, 0.0000, 0.0000, 0.0000, 0.0000
0, 0.8026, 259, -0.4778, 0.1689, -0.8850, 0.3010, -0.4439, -0.3345, 0.0000, 0.0000, 0.0000, 0.0000, 0.0000, 0.0000, 1.0000, -0.0028, -0.0005, -0.0092, 0.0000, 0.0000, 0.0000, 0.0000, 0.0000, 0.0000, 0.0000
0, 0.8100, 260, -0.4736, 0.1928, -0.8622, 0.5675, -0.2752, 0.6085, 0.0000, 0.0000, 0.0000, 0.0000, 0.0000, 0.0000, 1.0000, -0.0029, -0.0004, -0.0092, 0.0000, 0.0000, 0.0000, 0.0000, 0.0000, 0.0000, 0.0000
0, 0.8125, 261, -0.4657, 0.1966, -0.8700, -0.4968, 0.0849, 0.3504, 0.0000, 0.0000, 0.0000, 0.0000, 0.0000, 0.0000, 1.0000, -0.0028, -0.0004, -0.0092, 0.0000, 0.0000, 0.0000, 0.0000, 0.0000, 0.0000, 0.0000
0, 0.8175, 262, -0.4815, 0.1693, -0.8620, -0.3021, 0.0774, -0.2654, 0.0000, 0.0000, 0.0000, 0.0000, 0.0000, 0.0000, 1.0000, -0.0028, -0.0004, -0.0092, 0.0000, 0.0000, 0.0000, 0.0000, 0.0000, 0.0000, 0.0000
0, 0.8200, 263, -0.4816, 0.1850, -0.8621, -0.2275, -0.3200, 0.0136, 0.0000, 0.0000, 0.0000, 0.0000, 0.0000, 0.0000, 1.0000, -0.0028, -0.0003, -0.0092, 0.0000, 0.0000, 0.0000, 0.0000, 0.0000, 0.0000, 0.0000
0, 0.8225, 264, -0.4777, 0.1809, -0.8736, -0.0247, -0.5835, 0.0151, 0.0000, 0.0000, 0.0000, 0.0000, 0.0000, 0.0000, 1.0000, -0.0029, -0.0003, -0.0092, 0.0000, 0.0000, 0.0000, 0.0000, 0.0000, 0.0000, 0.0000
0, 0.8250, 265, -0.4694, 0.1853, -0.8468, -0.5626, -0.2101, -0.5260, 0.0000, 0.0000, 0.0000, 0.0000, 0.0000, 0.0000, 1.0000, -0.0029, -0.0002, -0.0092, 0.0000, 0.0000, 0.0000, 0.0000, 0.0000, 0.0000, 0.0000
0, 0.8275, 266, -0.4738, 0.1808, -0.8775, -0.4933, -0.2655, -0.1182, 0.0000, 0.0000, 0.0000, 0.0000, 0.0000, 0.0000, 1.0000, -0.0029, -0.0003, -0.0092, 0.0000, 0.0000, 0.0000, 0.0000, 0.0000, 0.0000, 0.0000
0, 0.8300, 267, -0.4736, 0.1811, -0.8621, 0.1009, -0.2414, -0.0628, 0.0000, 0.0000, 0.0000, 0.0000, 0.0000, 0.0000, 1.0000, -0.0029, -0.0002, -0.0092, 0.0000, 0.0000, 0.0000, 0.0000, 0.0000, 0.0000, 0.0000
0, 0.8325, 268, -0.4855, 0.1890, -0.8583, -0.1705, -0.0663, -0.8091, 0.0000, 0.0000, 0.0000, 0.0000, 0.0000, 0.0000, 1.0000, -0.0029, -0.0002, -0.0092, 0.0000, 0.0000, 0.0000, 0.0000, 0.0000, 0.0000, 0.0000
0, 0.8350, 269, -0.4857, 0.1808, -0.8736, -0.1698, -0.0630, -0.6731, 0.0000, 0.0000, 0.0000, 0.0000, 0.0000, 0.0000, 1.0000, -0.0030, -0.0001, -0.0092, 0.0000, 0.0000, 0.0000, 0.0000, 0.0000, 0.0000, 0.0000
0, 0.8375, 270, -0.4858, 0.1887, -0.8737, -0.4408, 0.4079, -0.4057, 0.0000, 0.0000, 0.0000, 0.0000, 0.0000, 0.0000, 1.0000, -0.0030, -0.0001, -0.0092, 0.0000, 0.0000, 0.0000, 0.0000, 0.0000, 0.0000, 0.0000
0, 0.8400, 271, -0.4857, 0.1848, -0.8698, 0.2403, -0.5686, 0.2134, 0.0000, 0.0000, 0.0000, 0.0000, 0.0000, 0.0000, 1.0000, -0.0030, -0.0001, -0.0092, 0.0000, 0.0000, 0.0000, 0.0000, 0.0000, 0.0000, 0.0000
0, 0.8425, 272, -0.4858, 0.1729, -0.8812, -0.2967, -0.1176, 0.0787, 0.0000, 0.0000, 0.0000, 0.0000, 0.0000, 0.0000, 1.0000, -0.0031, -0.0000, -0.0092, 0.0000, 0.0000, 0.0000, 0.0000, 0.0000, 0.0000, 0.0000
0, 0.8475, 273, -0.4779, 0.2043, -0.8777, 0.0334, -0.1778, -0.1308, 0.0000, 0.0000, 0.0000, 0.0000, 0.0000, 0.0000, 1.0000, -0.0029, -0.0001, -0.0092, 0.0000, 0.0000, 0.0000, 0.0000, 0.0000, 0.0000, 0.0000
0, 0.8500, 274, -0.4775, 0.1890, -0.8583, -0.1766, 0.4923, -0.1408, 0.0000, 0.0000, 0.0000, 0.0000, 0.0000, 0.0000, 1.0000, -0.0029, -0.0000, -0.0092, 0.0000, 0.0000, 0.0000, 0.0000, 0.0000, 0.0000, 0.0000
0, 0.8525, 275, -0.4778, 0.1808, -0.8775, 0.2181, 0.3551, -0.8260, 0.0000, 0.0000, 0.0000, 0.0000, 0.0000, 0.0000, 1.0000, -0.0029, -0.0001, -0.0092, 0.0000, 0.0000, 0.0000, 0.0000, 0.0000, 0.0000, 0.0000
0, 0.8550, 276, -0.4696, 0.1811, -0.8621, 0.3599, 0.1122, 0.1284, 0.0000, 0.0000, 0.0000, 0.0000, 0.0000, 0.0000, 1.0000, -0.0029, -0.0001, -0.0092, 0.0000, 0.0000, 0.0000, 0.0000, 0.0000, 0.0000, 0.0000
0, 0.8575, 277, -0.4736, 0.2007, -0.8623, 0.0300, 0.0998, 0.1354, 0.0000, 0.0000, 0.0000, 0.0000, 0.0000, 0.0000, 1.0000, -0.0027, -0.0001, -0.0092, 0.0000, 0.0000, 0.0000, 0.0000, 0.0000, 0.0000, 0.0000
0, 0.8600, 278, -0.4698, 0.1808, -0.8775, 0.3637, -0.0166, 0.4031, 0.0000, 0.0000, 0.0000, 0.0000, 0.0000, 0.0000, 1.0000, -0.0028, -0.0001, -0.0092, 0.0000, 0.0000, 0.0000, 0.0000, 0.0000, 0.0000, 0.0000
0, 0.8651, 279, -0.4857, 0.1808, -0.8736, -0.5608, -0.0548, 0.2867, 0.0000, 0.0000, 0.0000, 0.0000, 0.0000, 0.0000, 1.0000, -0.0029, -0.0001, -0.0092, 0.0000, 0.0000, 0.0000, 0.0000, 0.0000, 0.0000, 0.0000
0, 0.8676, 280, -0.4897, 0.1966, -0.8700, -0.0879, -0.7199, 0.0873, 0.0000, 0.0000, 0.0000, 0.0000, 0.0000, 0.0000, 1.0000, -0.0029, -0.0000, -0.0092, 0.0000, 0.0000, 0.0000, 0.0000, 0.0000, 0.0000, 0.0000
0, 0.8700, 281, -0.4778, 0.1965, -0.8738, -0.2987, -0.2002, -0.5316, 0.0000, 0.0000, 0.0000, 0.0000, 0.0000, 0.0000, 1.0000, -0.0028, -0.0000, -0.0092, 0.0000, 0.0000, 0.0000, 0.0000, 0.0000, 0.0000, 0.0000
0, 0.8725, 282, -0.4777, 0.1966, -0.8700, -0.4415, 0.4046, -0.5416, 0.0000, 0.0000, 0.0000, 0.0000, 0.0000, 0.0000, 1.0000, -0.0028, -0.0000, -0.0092, 0.0000, 0.0000, 0.0000, 0.0000, 0.0000, 0.0000, 0.0000
0, 0.8750, 283, -0.4658, 0.2005, -0.8738, -0.1083, 0.2121, -0.6123, 0.0000, 0.0000, 0.0000, 0.0000, 0.0000, 0.0000, 1.0000, -0.0027, -0.0001, -0.0092, 0.0000, 0.0000, 0.0000, 0.0000, 0.0000, 0.0000, 0.0000
0, 0.8775, 284, -0.4738, 0.1808, -0.8775, -0.0354, -0.0465, -0.2002, 0.0000, 0.0000, 0.0000, 0.0000, 0.0000, 0.0000, 1.0000, -0.0028, -0.0002, -0.0091, 0.0000, 0.0000, 0.0000, 0.0000, 0.0000, 0.0000, 0.0000
0, 0.8800, 285, -0.4777, 0.1848, -0.8737, -0.1654, 0.0312, 0.4128, 0.0000, 0.0000, 0.0000, 0.0000, 0.0000, 0.0000, 1.0000, -0.0028, -0.0002, -0.0092, 0.0000, 0.0000, 0.0000, 0.0000, 0.0000, 0.0000, 0.0000
0, 0.8825, 286, -0.4776, 0.1811, -0.8621, -0.5562, -0.1804, 0.6973, 0.0000, 0.0000, 0.0000, 0.0000, 0.0000, 0.0000, 1.0000, -0.0028, -0.0001, -0.0092, 0.0000, 0.0000, 0.0000, 0.0000, 0.0000, 0.0000, 0.0000
0, 0.8850, 287, -0.4859, 0.1964, -0.8776, -0.2372, 0.2948, 0.2047, 0.0000, 0.0000, 0.0000, 0.0000, 0.0000, 0.0000, 1.0000, -0.0028, -0.0001, -0.0092, 0.0000, 0.0000, 0.0000, 0.0000, 0.0000, 0.0000, 0.0000
0, 0.8875, 288, -0.4818, 0.1925, -0.8776, -0.3604, -0.1828, 0.2854, 0.0000, 0.0000, 0.0000, 0.0000, 0.0000, 0.0000, 1.0000, -0.0028, -0.0001, -0.0092, 0.0000, 0.0000, 0.0000, 0.0000, 0.0000, 0.0000, 0.0000
0, 0.8900, 289, -0.4660, 0.1845, -0.8891, -0.5617, -0.1325, -0.1197, 0.0000, 0.0000, 0.0000, 0.0000, 0.0000, 0.0000, 1.0000, -0.0028, -0.0002, -0.0092, 0.0000, 0.0000, 0.0000, 0.0000, 0.0000, 0.0000, 0.0000
0, 0.8925, 290, -0.4736, 0.1968, -0.8623, 0.6232, 0.0462, -0.2155, 0.0000, 0.0000, 0.0000, 0.0000, 0.0000, 0.0000, 1.0000, -0.0028, -0.0002, -0.0092, 0.0000, 0.0000, 0.0000, 0.0000, 0.0000, 0.0000, 0.0000
0, 0.8950, 291, -0.4778, 0.1887, -0.8737, -0.6304, 0.1460, 0.2838, 0.0000, 0.0000, 0.0000, 0.0000, 0.0000, 0.0000, 1.0000, -0.0027, -0.0002, -0.0092, 0.0000, 0.0000, 0.0000, 0.0000, 0.0000, 0.0000, 0.0000
0, 0.8975, 292, -0.4778, 0.1925, -0.8776, 0.1545, 0.4369, -0.1464, 0.0000, 0.0000, 0.0000, 0.0000, 0.0000, 0.0000, 1.0000, -0.0027, -0.0002, -0.0092, 0.0000, 0.0000, 0.0000, 0.0000, 0.0000, 0.0000, 0.0000
0, 0.9050, 293, -0.4697, 0.1927, -0.8699, -0.0430, 0.3584, -0.2767, 0.0000, 0.0000, 0.0000, 0.0000, 0.0000, 0.0000, 1.0000, -0.0025, -0.0003, -0.0092, 0.0000, 0.0000, 0.0000, 0.0000, 0.0000, 0.0000, 0.0000
0, 0.9075, 294, -0.4818, 0.2004, -0.8738, 0.5505, 0.5990, 0.3182, 0.0000, 0.0000, 0.0000, 0.0000, 0.0000, 0.0000, 1.0000, -0.0025, -0.0004, -0.0092, 0.0000, 0.0000, 0.0000, 0.0000, 0.0000, 0.0000, 0.0000
0, 0.9125, 295, -0.4696, 0.1850, -0.8660, 0.2360, -0.3687, 0.0732, 0.0000, 0.0000, 0.0000, 0.0000, 0.0000, 0.0000, 1.0000, -0.0025, -0.0004, -0.0092, 0.0000, 0.0000, 0.0000, 0.0000, 0.0000, 0.0000, 0.0000
0, 0.9150, 296, -0.4576, 0.1732, -0.8697, 0.4967, -0.3736, -0.5440, 0.0000, 0.0000, 0.0000, 0.0000, 0.0000, 0.0000, 1.0000, -0.0025, -0.0004, -0.0092, 0.0000, 0.0000, 0.0000, 0.0000, 0.0000, 0.0000, 0.0000
0, 0.9175, 297, -0.4618, 0.1887, -0.8776, 0.5585, -0.0241, -0.2127, 0.0000, 0.0000, 0.0000, 0.0000, 0.0000, 0.0000, 1.0000, -0.0026, -0.0005, -0.0092, 0.0000, 0.0000, 0.0000, 0.0000, 0.0000, 0.0000, 0.0000
0, 0.9200, 298, -0.4779, 0.1885, -0.8852, -0.1039, 0.1593, 0.0008, 0.0000, 0.0000, 0.0000, 0.0000, 0.0000, 0.0000, 1.0000, -0.0026, -0.0006, -0.0092, 0.0000, 0.0000, 0.0000, 0.0000, 0.0000, 0.0000, 0.0000
0, 0.9225, 299, -0.4737, 0.1848, -0.8737, 0.2269, 0.2494, 0.4002, 0.0000, 0.0000, 0.0000, 0.0000, 0.0000, 0.0000, 1.0000, -0.0026, -0.0006, -0.0092, 0.0000, 0.0000, 0.0000, 0.0000, 0.0000, 0.0000, 0.0000
0, 0.9250, 300, -0.4777, 0.1848, -0.8737, 0.1520, 0.7923, 0.5262, 0.0000, 0.0000, 0.0000, 0.0000, 0.0000, 0.0000, 1.0000, -0.0026, -0.0006, -0.0092, 0.0000, 0.0000, 0.0000, 0.0000, 0.0000, 0.0000, 0.0000
0, 0.9350, 301, -0.4739, 0.1846, -0.8814, 0.4933, 0.1238, 0.3975, 0.0000, 0.0000, 0.0000, 0.0000, 0.0000, 0.0000, 1.0000, -0.0028, -0.0008, -0.0093, 0.0000, 0.0000, 0.0000, 0.0000, 0.0000, 0.0000, 0.0000
0, 0.9400, 302, -0.4739, 0.1767, -0.8851, -0.2948, -0.1820, 0.2160, 0.0000, 0.0000, 0.0000, 0.0000, 0.0000, 0.0000, 1.0000, -0.0029, -0.0008, -0.0094, 0.0000, 0.0000, 0.0000, 0.0000, 0.0000, 0.0000, 0.0000
0, 0.9425, 303, -0.4659, 0.1885, -0.8852, 0.0988, -0.1043, 0.0023, 0.0000, 0.0000, 0.0000, 0.0000, 0.0000, 0.0000, 1.0000, -0.0029, -0.0010, -0.0094, 0.0000, 0.0000, 0.0000, 0.0000, 0.0000, 0.0000, 0.0000
0, 0.9450, 304, -0.4818, 0.1886, -0.8776, -0.8216, -0.1969, 0.4310, 0.0000, 0.0000, 0.0000, 0.0000, 0.0000, 0.0000, 1.0000, -0.0029, -0.0010, -0.0094, 0.0000, 0.0000, 0.0000, 0.0000, 0.0000, 0.0000, 0.0000
0, 0.9575, 305, -0.4658, 0.1927, -0.8738, 0.0313, -0.0407, -0.0656, 0.0000, 0.0000, 0.0000, 0.0000, 0.0000, 0.0000, 1.0000, -0.0027, -0.0010, -0.0093, 0.0000, 0.0000, 0.0000, 0.0000, 0.0000, 0.0000, 0.0000
0, 0.9600, 306, -0.4738, 0.2044, -0.8700, -0.5591, -0.1936, 0.1536, 0.0000, 0.0000, 0.0000, 0.0000, 0.0000, 0.0000, 1.0000, -0.0026, -0.0010, -0.0093, 0.0000, 0.0000, 0.0000, 0.0000, 0.0000, 0.0000, 0.0000
0, 0.9625, 307, -0.4777, 0.1967, -0.8661, -0.7592, 0.0088, 0.4254, 0.0000, 0.0000, 0.0000, 0.0000, 0.0000, 0.0000, 1.0000, -0.0026, -0.0010, -0.0093, 0.0000, 0.0000, 0.0000, 0.0000, 0.0000, 0.0000, 0.0000
0, 0.9650, 308, -0.4737, 0.1967, -0.8661, -0.0377, 0.2361, 0.2699, 0.0000, 0.0000, 0.0000, 0.0000, 0.0000, 0.0000, 1.0000, -0.0025, -0.0010, -0.0092, 0.0000, 0.0000, 0.0000, 0.0000, 0.0000, 0.0000, 0.0000
0, 0.9700, 309, -0.4779, 0.2003, -0.8815, -0.4893, -0.3200, 0.4269, 0.0000, 0.0000, 0.0000, 0.0000, 0.0000, 0.0000, 1.0000, -0.0025, -0.0010, -0.0093, 0.0000, 0.0000, 0.0000, 0.0000, 0.0000, 0.0000, 0.0000
0, 0.9725, 310, -0.4778, 0.1808, -0.8775, -0.6261, -0.2011, -0.0489, 0.0000, 0.0000, 0.0000, 0.0000, 0.0000, 0.0000, 1.0000, -0.0025, -0.0010, -0.0093, 0.0000, 0.0000, 0.0000, 0.0000, 0.0000, 0.0000, 0.0000
0, 0.9750, 311, -0.4738, 0.1808, -0.8775, -0.5578, -0.1143, 0.6279, 0.0000, 0.0000, 0.0000, 0.0000, 0.0000, 0.0000, 1.0000, -0.0025, -0.0010, -0.0093, 0.0000, 0.0000, 0.0000, 0.0000, 0.0000, 0.0000, 0.0000
0, 0.9775, 312, -0.4737, 0.1848, -0.8737, -0.3496, -0.7926, 0.2982, 0.0000, 0.0000, 0.0000, 0.0000, 0.0000, 0.0000, 1.0000, -0.0025, -0.0010, -0.0093, 0.0000, 0.0000, 0.0000, 0.0000, 0.0000, 0.0000, 0.0000
0, 0.9800, 313, -0.4734, 0.1773, -0.8544, 0.4936, 0.1255, 0.4655, 0.0000, 0.0000, 0.0000, 0.0000, 0.0000, 0.0000, 1.0000, -0.0026, -0.0010, -0.0093, 0.0000, 0.0000, 0.0000, 0.0000, 0.0000, 0.0000, 0.0000
0, 0.9825, 314, -0.4817, 0.2006, -0.8662, 0.7600, 0.1470, 0.9356, 0.0000, 0.0000, 0.0000, 0.0000, 0.0000, 0.0000, 1.0000, -0.0025, -0.0010, -0.0093, 0.0000, 0.0000, 0.0000, 0.0000, 0.0000, 0.0000, 0.0000
0, 0.9850, 315, -0.4738, 0.1887, -0.8737, -0.0329, -0.0349, 0.2756, 0.0000, 0.0000, 0.0000, 0.0000, 0.0000, 0.0000, 1.0000, -0.0025, -0.0010, -0.0093, 0.0000, 0.0000, 0.0000, 0.0000, 0.0000, 0.0000, 0.0000
0, 0.9875, 316, -0.4897, 0.1927, -0.8661, -0.1525, -0.7158, 0.3605, 0.0000, 0.0000, 0.0000, 0.0000, 0.0000, 0.0000, 1.0000, -0.0025, -0.0009, -0.0093, 0.0000, 0.0000, 0.0000, 0.0000, 0.0000, 0.0000, 0.0000
0, 0.9901, 317, -0.4898, 0.1965, -0.8738, 0.3658, -0.1538, 0.3380, 0.0000, 0.0000, 0.0000, 0.0000, 0.0000, 0.0000, 1.0000, -0.0025, -0.0009, -0.0093, 0.0000, 0.0000, 0.0000, 0.0000, 0.0000, 0.0000, 0.0000
0, 0.9926, 318, -0.4698, 0.2044, -0.8739, 0.1555, 0.4419, 0.0575, 0.0000, 0.0000, 0.0000, 0.0000, 0.0000, 0.0000, 1.0000, -0.0024, -0.0009, -0.0093, 0.0000, 0.0000, 0.0000, 0.0000, 0.0000, 0.0000, 0.0000
0, 0.9975, 319, -0.4816, 0.1732, -0.8659, -0.3044, 0.3600, 0.2046, 0.0000, 0.0000, 0.0000, 0.0000, 0.0000, 0.0000, 1.0000, -0.0025, -0.0010, -0.0093, 0.0000, 0.0000, 0.0000, 0.0000, 0.0000, 0.0000, 0.0000
0, 1.0000, 320, -0.4855, 0.1771, -0.8621, -0.1049, 0.3014, 0.2698, 0.0000, 0.0000, 0.0000, 0.0000, 0.0000, 0.0000, 1.0000, -0.0025, -0.0009, -0.0093, 0.0000, 0.0000, 0.0000, 0.0000, 0.0000, 0.0000, 0.0000
0, 1.0075, 321, -0.4695, 0.1812, -0.8583, 0.0427, -0.5744, 0.2856, 0.0000, 0.0000, 0.0000, 0.0000, 0.0000, 0.0000, 1.0000, -0.0025, -0.0008, -0.0094, 0.0000, 0.0000, 0.0000, 0.0000, 0.0000, 0.0000, 0.0000
0, 1.0100, 322, -0.4738, 0.1769, -0.8774, 0.1007, -0.3158, -0.3332, 0.0000, 0.0000, 0.0000, 0.0000, 0.0000, 0.0000, 1.0000, -0.0025, -0.0008, -0.0094, 0.0000, 0.0000, 0.0000, 0.0000, 0.0000, 0.0000, 0.0000
0, 1.0125, 323, -0.4777, 0.1888, -0.8660, -0.0973, -0.3233, -0.3290, 0.0000, 0.0000, 0.0000, 0.0000, 0.0000, 0.0000, 1.0000, -0.0025, -0.0008, -0.0094, 0.0000, 0.0000, 0.0000, 0.0000, 0.0000, 0.0000, 0.0000
0, 1.0150, 324, -0.4736, 0.1850, -0.8621, -0.2327, -0.1977, -0.5330, 0.0000, 0.0000, 0.0000, 0.0000, 0.0000, 0.0000, 1.0000, -0.0025, -0.0008, -0.0093, 0.0000, 0.0000, 0.0000, 0.0000, 0.0000, 0.0000, 0.0000
0, 1.0225, 325, -0.4818, 0.1768, -0.8813, -0.1640, -0.1093, 0.2118, 0.0000, 0.0000, 0.0000, 0.0000, 0.0000, 0.0000, 1.0000, -0.0028, -0.0010, -0.0094, 0.0000, 0.0000, 0.0000, 0.0000, 0.0000, 0.0000, 0.0000
0, 1.0250, 326, -0.4738, 0.2005, -0.8700, -0.2327, -0.1977, -0.5330, 0.0000, 0.0000, 0.0000, 0.0000, 0.0000, 0.0000, 1.0000, -0.0027, -0.0010, -0.0094, 0.0000, 0.0000, 0.0000, 0.0000, 0.0000, 0.0000, 0.0000
0, 1.0275, 327, -0.4775, 0.1852, -0.8545, -0.2924, -0.3175, 0.2189, 0.0000, 0.0000, 0.0000, 0.0000, 0.0000, 0.0000, 1.0000, -0.0027, -0.0009, -0.0094, 0.0000, 0.0000, 0.0000, 0.0000, 0.0000, 0.0000, 0.0000
0, 1.0300, 328, -0.4737, 0.1849, -0.8698, -0.7577, -0.2044, 0.0219, 0.0000, 0.0000, 0.0000, 0.0000, 0.0000, 0.0000, 1.0000, -0.0027, -0.0009, -0.0094, 0.0000, 0.0000, 0.0000, 0.0000, 0.0000, 0.0000, 0.0000
0, 1.0325, 329, -0.4737, 0.1809, -0.8736, 0.1669, -0.2390, -0.0642, 0.0000, 0.0000, 0.0000, 0.0000, 0.0000, 0.0000, 1.0000, -0.0028, -0.0009, -0.0094, 0.0000, 0.0000, 0.0000, 0.0000, 0.0000, 0.0000, 0.0000
0, 1.0375, 330, -0.4699, 0.2122, -0.8740, 0.0994, -0.0283, 0.3407, 0.0000, 0.0000, 0.0000, 0.0000, 0.0000, 0.0000, 1.0000, -0.0026, -0.0010, -0.0093, 0.0000, 0.0000, 0.0000, 0.0000, 0.0000, 0.0000, 0.0000
0, 1.0400, 331, -0.4775, 0.2008, -0.8546, 0.2947, 0.0404, 0.0633, 0.0000, 0.0000, 0.0000, 0.0000, 0.0000, 0.0000, 1.0000, -0.0024, -0.0009, -0.0093, 0.0000, 0.0000, 0.0000, 0.0000, 0.0000, 0.0000, 0.0000
0, 1.0450, 332, -0.4618, 0.1848, -0.8775, -0.1626, -0.1027, 0.4837, 0.0000, 0.0000, 0.0000, 0.0000, 0.0000, 0.0000, 1.0000, -0.0024, -0.0010, -0.0093, 0.0000, 0.0000, 0.0000, 0.0000, 0.0000, 0.0000, 0.0000
0, 1.0475, 333, -0.4856, 0.1928, -0.8622, -0.4282, -0.3407, -0.5260, 0.0000, 0.0000, 0.0000, 0.0000, 0.0000, 0.0000, 1.0000, -0.0024, -0.0009, -0.0093, 0.0000, 0.0000, 0.0000, 0.0000, 0.0000, 0.0000, 0.0000
0, 1.0500, 334, -0.4616, 0.1850, -0.8660, -0.0331, -0.1093, 0.0051, 0.0000, 0.0000, 0.0000, 0.0000, 0.0000, 0.0000, 1.0000, -0.0024, -0.0011, -0.0093, 0.0000, 0.0000, 0.0000, 0.0000, 0.0000, 0.0000, 0.0000
0, 1.0526, 335, -0.4695, 0.1694, -0.8620, -0.3681, 0.2948, 0.4113, 0.0000, 0.0000, 0.0000, 0.0000, 0.0000, 0.0000, 1.0000, -0.0025, -0.0011, -0.0093, 0.0000, 0.0000, 0.0000, 0.0000, 0.0000, 0.0000, 0.0000
0, 1.0551, 336, -0.4697, 0.1848, -0.8737, 0.2896, 0.3097, -0.0104, 0.0000, 0.0000, 0.0000, 0.0000, 0.0000, 0.0000, 1.0000, -0.0025, -0.0012, -0.0094, 0.0000, 0.0000, 0.0000, 0.0000, 0.0000, 0.0000, 0.0000
0, 1.0575, 337, -0.4738, 0.2005, -0.8700, 0.5005, -0.2827, 0.4060, 0.0000, 0.0000, 0.0000, 0.0000, 0.0000, 0.0000, 1.0000, -0.0025, -0.0012, -0.0094, 0.0000, 0.0000, 0.0000, 0.0000, 0.0000, 0.0000, 0.0000
0, 1.0600, 338, -0.4815, 0.1851, -0.8545, 0.5075, -0.7636, 0.1441, 0.0000, 0.0000, 0.0000, 0.0000, 0.0000, 0.0000, 1.0000, -0.0025, -0.0011, -0.0094, 0.0000, 0.0000, 0.0000, 0.0000, 0.0000, 0.0000, 0.0000
0, 1.0675, 339, -0.4737, 0.1889, -0.8660, -0.1700, 0.2295, 0.2047, 0.0000, 0.0000, 0.0000, 0.0000, 0.0000, 0.0000, 1.0000, -0.0024, -0.0011, -0.0094, 0.0000, 0.0000, 0.0000, 0.0000, 0.0000, 0.0000, 0.0000
0, 1.0700, 340, -0.4815, 0.1891, -0.8545, -0.1673, 0.0957, 0.2755, 0.0000, 0.0000, 0.0000, 0.0000, 0.0000, 0.0000, 1.0000, -0.0024, -0.0010, -0.0093, 0.0000, 0.0000, 0.0000, 0.0000, 0.0000, 0.0000, 0.0000
0, 1.0725, 341, -0.4817, 0.1888, -0.8699, -0.0898, -0.5083, 0.4228, 0.0000, 0.0000, 0.0000, 0.0000, 0.0000, 0.0000, 1.0000, -0.0024, -0.0009, -0.0093, 0.0000, 0.0000, 0.0000, 0.0000, 0.0000, 0.0000, 0.0000
0, 1.0750, 342, -0.4696, 0.2007, -0.8623, -0.5027, 0.1311, -0.5345, 0.0000, 0.0000, 0.0000, 0.0000, 0.0000, 0.0000, 1.0000, -0.0023, -0.0010, -0.0093, 0.0000, 0.0000, 0.0000, 0.0000, 0.0000, 0.0000, 0.0000
0, 1.0775, 343, -0.4697, 0.1889, -0.8660, -0.3667, -0.0655, -0.4651, 0.0000, 0.0000, 0.0000, 0.0000, 0.0000, 0.0000, 1.0000, -0.0023, -0.0010, -0.0093, 0.0000, 0.0000, 0.0000, 0.0000, 0.0000, 0.0000, 0.0000
0, 1.0825, 344, -0.4816, 0.1967, -0.8623, 0.3637, -0.0166, 0.4031, 0.0000, 0.0000, 0.0000, 0.0000, 0.0000, 0.0000, 1.0000, -0.0023, -0.0009, -0.0093, 0.0000, 0.0000, 0.0000, 0.0000, 0.0000, 0.0000, 0.0000
0, 1.0850, 345, -0.4818, 0.2005, -0.8700, -0.1047, 0.0089, -0.6080, 0.0000, 0.0000, 0.0000, 0.0000, 0.0000, 0.0000, 1.0000, -0.0023, -0.0008, -0.0093, 0.0000, 0.0000, 0.0000, 0.0000, 0.0000, 0.0000, 0.0000
0, 1.0900, 346, -0.4777, 0.1888, -0.8699, 0.5447, 0.7923, -0.0939, 0.0000, 0.0000, 0.0000, 0.0000, 0.0000, 0.0000, 1.0000, -0.0022, -0.0008, -0.0093, 0.0000, 0.0000, 0.0000, 0.0000, 0.0000, 0.0000, 0.0000
0, 1.0925, 347, -0.4736, 0.1849, -0.8660, 0.4917, 0.1899, 0.3281, 0.0000, 0.0000, 0.0000, 0.0000, 0.0000, 0.0000, 1.0000, -0.0022, -0.0008, -0.0093, 0.0000, 0.0000, 0.0000, 0.0000, 0.0000, 0.0000, 0.0000
0, 1.0975, 348, -0.4937, 0.1966, -0.8661, 0.0999, -0.0993, 0.2062, 0.0000, 0.0000, 0.0000, 0.0000, 0.0000, 0.0000, 1.0000, -0.0022, -0.0006, -0.0093, 0.0000, 0.0000, 0.0000, 0.0000, 0.0000, 0.0000, 0.0000
0, 1.1000, 349, -0.4858, 0.1847, -0.8775, 0.8277, 0.0107, 0.8012, 0.0000, 0.0000, 0.0000, 0.0000, 0.0000, 0.0000, 1.0000, -0.0022, -0.0006, -0.0093, 0.0000, 0.0000, 0.0000, 0.0000, 0.0000, 0.0000, 0.0000
0, 1.1025, 350, -0.4777, 0.1888, -0.8660, 0.1708, -0.2208, 0.6834, 0.0000, 0.0000, 0.0000, 0.0000, 0.0000, 0.0000, 1.0000, -0.0022, -0.0006, -0.0093, 0.0000, 0.0000, 0.0000, 0.0000, 0.0000, 0.0000, 0.0000
0, 1.1050, 351, -0.4858, 0.1926, -0.8738, -0.4324, -0.0664, -0.3957, 0.0000, 0.0000, 0.0000, 0.0000, 0.0000, 0.0000, 1.0000, -0.0022, -0.0006, -0.0093, 0.0000, 0.0000, 0.0000, 0.0000, 0.0000, 0.0000, 0.0000
0, 1.1075, 352, -0.4737, 0.1927, -0.8699, 0.0200, 0.4204, -0.6193, 0.0000, 0.0000, 0.0000, 0.0000, 0.0000, 0.0000, 1.0000, -0.0022, -0.0006, -0.0093, 0.0000, 0.0000, 0.0000, 0.0000, 0.0000, 0.0000, 0.0000
0, 1.1100, 353, -0.4779, 0.1964, -0.8815, -0.0330, -0.1820, -0.1973, 0.0000, 0.0000, 0.0000, 0.0000, 0.0000, 0.0000, 1.0000, -0.0022, -0.0006, -0.0093, 0.0000, 0.0000, 0.0000, 0.0000, 0.0000, 0.0000, 0.0000
0, 1.1125, 354, -0.4737, 0.1888, -0.8699, -0.2334, -0.2010, -0.6689, 0.0000, 0.0000, 0.0000, 0.0000, 0.0000, 0.0000, 1.0000, -0.0022, -0.0006, -0.0093, 0.0000, 0.0000, 0.0000, 0.0000, 0.0000, 0.0000, 0.0000
0, 1.1151, 355, -0.4656, 0.1890, -0.8622, -0.0340, -0.0398, 0.0717, 0.0000, 0.0000, 0.0000, 0.0000, 0.0000, 0.0000, 1.0000, -0.0021, -0.0007, -0.0093, 0.0000, 0.0000, 0.0000, 0.0000, 0.0000, 0.0000, 0.0000
0, 1.1176, 356, -0.4578, 0.2044, -0.8739, 0.7549, 0.1966, 0.1866, 0.0000, 0.0000, 0.0000, 0.0000, 0.0000, 0.0000, 1.0000, -0.0021, -0.0008, -0.0093, 0.0000, 0.0000, 0.0000, 0.0000, 0.0000, 0.0000, 0.0000
0, 1.1200, 357, -0.4696, 0.1850, -0.8660, 0.5596, 0.1280, 0.4641, 0.0000, 0.0000, 0.0000, 0.0000, 0.0000, 0.0000, 1.0000, -0.0021, -0.0008, -0.0093, 0.0000, 0.0000, 0.0000, 0.0000, 0.0000, 0.0000, 0.0000
0, 1.1250, 358, -0.4697, 0.1888, -0.8699, 0.5552, 0.1809, -0.1490, 0.0000, 0.0000, 0.0000, 0.0000, 0.0000, 0.0000, 1.0000, -0.0021, -0.0009, -0.0093, 0.0000, 0.0000, 0.0000, 0.0000, 0.0000, 0.0000, 0.0000
0, 1.1275, 359, -0.4777, 0.1770, -0.8736, 0.2879, 0.2287, -0.5526, 0.0000, 0.0000, 0.0000, 0.0000, 0.0000, 0.0000, 1.0000, -0.0022, -0.0008, -0.0093, 0.0000, 0.0000, 0.0000, 0.0000, 0.0000, 0.0000, 0.0000
0, 1.1300, 360, -0.4817, 0.1848, -0.8737, -0.0334, -0.3307, -0.7382, 0.0000, 0.0000, 0.0000, 0.0000, 0.0000, 0.0000, 1.0000, -0.0022, -0.0008, -0.0093, 0.0000, 0.0000, 0.0000, 0.0000, 0.0000, 0.0000, 0.0000
0, 1.1325, 361, -0.4738, 0.1807, -0.8813, 0.3619, -0.0249, 0.0633, 0.0000, 0.0000, 0.0000, 0.0000, 0.0000, 0.0000, 1.0000, -0.0023, -0.0009, -0.0093, 0.0000, 0.0000, 0.0000, 0.0000, 0.0000, 0.0000, 0.0000
0, 1.1350, 362, -0.4657, 0.2046, -0.8624, 0.3097, -0.4769, 1.0941, 0.0000, 0.0000, 0.0000, 0.0000, 0.0000, 0.0000, 1.0000, -0.0022, -0.0009, -0.0094, 0.0000, 0.0000, 0.0000, 0.0000, 0.0000, 0.0000, 0.0000
0, 1.1400, 363, -0.4817, 0.1770, -0.8698, 0.1065, -0.7290, -0.5965, 0.0000, 0.0000, 0.0000, 0.0000, 0.0000, 0.0000, 1.0000, -0.0023, -0.0008, -0.0094, 0.0000, 0.0000, 0.0000, 0.0000, 0.0000, 0.0000, 0.0000
0, 1.1425, 364, -0.4817, 0.1809, -0.8736, 0.2322, -0.2398, -0.2015, 0.0000, 0.0000, 0.0000, 0.0000, 0.0000, 0.0000, 1.0000, -0.0024, -0.0008, -0.0094, 0.0000, 0.0000, 0.0000, 0.0000, 0.0000, 0.0000, 0.0000
0, 1.1475, 365, -0.4739, 0.1964, -0.8815, 0.2382, -0.4315, 0.2785, 0.0000, 0.0000, 0.0000, 0.0000, 0.0000, 0.0000, 1.0000, -0.0024, -0.0008, -0.0094, 0.0000, 0.0000, 0.0000, 0.0000, 0.0000, 0.0000, 0.0000
0, 1.1500, 366, -0.4739, 0.1885, -0.8852, 0.3585, 0.2527, 0.3295, 0.0000, 0.0000, 0.0000, 0.0000, 0.0000, 0.0000, 1.0000, -0.0024, -0.0009, -0.0094, 0.0000, 0.0000, 0.0000, 0.0000, 0.0000, 0.0000, 0.0000
0, 1.1525, 367, -0.4817, 0.1809, -0.8736, 0.3653, -0.0827, 0.4725, 0.0000, 0.0000, 0.0000, 0.0000, 0.0000, 0.0000, 1.0000, -0.0024, -0.0009, -0.0094, 0.0000, 0.0000, 0.0000, 0.0000, 0.0000, 0.0000, 0.0000
0, 1.1550, 368, -0.4820, 0.1844, -0.8929, 0.4333, -0.2174, 0.4060, 0.0000, 0.0000, 0.0000, 0.0000, 0.0000, 0.0000, 1.0000, -0.0024, -0.0009, -0.0095, 0.0000, 0.0000, 0.0000, 0.0000, 0.0000, 0.0000, 0.0000
0, 1.1575, 369, -0.4737, 0.1927, -0.8699, 0.5600, -0.0902, -0.1433, 0.0000, 0.0000, 0.0000, 0.0000, 0.0000, 0.0000, 1.0000, -0.0024, -0.0009, -0.0095, 0.0000, 0.0000, 0.0000, 0.0000, 0.0000, 0.0000, 0.0000
0, 1.1600, 370, -0.4737, 0.1927, -0.8699, 0.1707, -0.3678, 0.2105, 0.0000, 0.0000, 0.0000, 0.0000, 0.0000, 0.0000, 1.0000, -0.0024, -0.0009, -0.0095, 0.0000, 0.0000, 0.0000, 0.0000, 0.0000, 0.0000, 0.0000
0, 1.1625, 371, -0.4617, 0.1888, -0.8699, 0.0999, -0.0993, 0.2062, 0.0000, 0.0000, 0.0000, 0.0000, 0.0000, 0.0000, 1.0000, -0.0024, -0.0010, -0.0095, 0.0000, 0.0000, 0.0000, 0.0000, 0.0000, 0.0000, 0.0000
0, 1.1650, 372, -0.4739, 0.1924, -0.8853, -0.0300, -0.2415, 0.1439, 0.0000, 0.0000, 0.0000, 0.0000, 0.0000, 0.0000, 1.0000, -0.0024, -0.0010, -0.0095, 0.0000, 0.0000, 0.0000, 0.0000, 0.0000, 0.0000, 0.0000
0, 1.1675, 373, -0.4737, 0.1848, -0.8737, 0.1073, -0.5786, 0.0123, 0.0000, 0.0000, 0.0000, 0.0000, 0.0000, 0.0000, 1.0000, -0.0024, -0.0010, -0.0095, 0.0000, 0.0000, 0.0000, 0.0000, 0.0000, 0.0000, 0.0000
0, 1.1700, 374, -0.4737, 0.1966, -0.8700, -0.3584, -0.4671, -0.2526, 0.0000, 0.0000, 0.0000, 0.0000, 0.0000, 0.0000, 1.0000, -0.0024, -0.0010, -0.0095, 0.0000, 0.0000, 0.0000, 0.0000, 0.0000, 0.0000, 0.0000
0, 1.1725, 375, -0.4857, 0.1809, -0.8698, 0.4320, -0.2968, -0.0683, 0.0000, 0.0000, 0.0000, 0.0000, 0.0000, 0.0000, 1.0000, -0.0024, -0.0010, -0.0095, 0.0000, 0.0000, 0.0000, 0.0000, 0.0000, 0.0000, 0.0000
0, 1.1750, 376, -0.4857, 0.1848, -0.8737, 0.3653, -0.3026, -0.2028, 0.0000, 0.0000, 0.0000, 0.0000, 0.0000, 0.0000, 1.0000, -0.0024, -0.0009, -0.0095, 0.0000, 0.0000, 0.0000, 0.0000, 0.0000, 0.0000, 0.0000
0, 1.1801, 377, -0.4856, 0.1850, -0.8621, -0.1615, -0.3175, 0.0122, 0.0000, 0.0000, 0.0000, 0.0000, 0.0000, 0.0000, 1.0000, -0.0025, -0.0008, -0.0095, 0.0000, 0.0000, 0.0000, 0.0000, 0.0000, 0.0000, 0.0000
0, 1.1825, 378, -0.4736, 0.1929, -0.8584, -0.1654, -0.1159, -0.0600, 0.0000, 0.0000, 0.0000, 0.0000, 0.0000, 0.0000, 1.0000, -0.0024, -0.0007, -0.0095, 0.0000, 0.0000, 0.0000, 0.0000, 0.0000, 0.0000, 0.0000
0, 1.1850, 379, -0.4857, 0.1848, -0.8698, 0.4940, -0.0927, -0.1419, 0.0000, 0.0000, 0.0000, 0.0000, 0.0000, 0.0000, 1.0000, -0.0024, -0.0007, -0.0095, 0.0000, 0.0000, 0.0000, 0.0000, 0.0000, 0.0000, 0.0000
0, 1.1875, 380, -0.4897, 0.1691, -0.8735, 0.4910, 0.1866, 0.1922, 0.0000, 0.0000, 0.0000, 0.0000, 0.0000, 0.0000, 1.0000, -0.0025, -0.0006, -0.0095, 0.0000, 0.0000, 0.0000, 0.0000, 0.0000, 0.0000, 0.0000
0, 1.1900, 381, -0.4697, 0.1888, -0.8699, 0.0992, -0.1026, 0.0703, 0.0000, 0.0000, 0.0000, 0.0000, 0.0000, 0.0000, 1.0000, -0.0025, -0.0007, -0.0095, 0.0000, 0.0000, 0.0000, 0.0000, 0.0000, 0.0000, 0.0000
0, 1.1925, 382, -0.4658, 0.1887, -0.8737, 0.1021, -0.3092, -0.0613, 0.0000, 0.0000, 0.0000, 0.0000, 0.0000, 0.0000, 1.0000, -0.0025, -0.0008, -0.0095, 0.0000, 0.0000, 0.0000, 0.0000, 0.0000, 0.0000, 0.0000
0, 1.1950, 383, -0.4819, 0.1846, -0.8814, 0.0878, 0.4311, -0.2809, 0.0000, 0.0000, 0.0000, 0.0000, 0.0000, 0.0000, 1.0000, -0.0026, -0.0008, -0.0095, 0.0000, 0.0000, 0.0000, 0.0000, 0.0000, 0.0000, 0.0000
0, 1.1975, 384, -0.4777, 0.1848, -0.8737, 0.5570, 0.1891, 0.1908, 0.0000, 0.0000, 0.0000, 0.0000, 0.0000, 0.0000, 1.0000, -0.0026, -0.0008, -0.0095, 0.0000, 0.0000, 0.0000, 0.0000, 0.0000, 0.0000, 0.0000
0, 1.2000, 385, -0.4697, 0.1692, -0.8735, -0.1075, 0.1427, -0.6788, 0.0000, 0.0000, 0.0000, 0.0000, 0.0000, 0.0000, 1.0000, -0.0027, -0.0008, -0.0095, 0.0000, 0.0000, 0.0000, 0.0000, 0.0000, 0.0000, 0.0000
0, 1.2025, 386, -0.4740, 0.1844, -0.8929, -0.2997, -0.0581, -0.2626, 0.0000, 0.0000, 0.0000, 0.0000, 0.0000, 0.0000, 1.0000, -0.0027, -0.0008, -0.0095, 0.0000, 0.0000, 0.0000, 0.0000, 0.0000, 0.0000, 0.0000
0, 1.2050, 387, -0.4617, 0.1770, -0.8736, 0.6214, 0.2577, 0.1200, 0.0000, 0.0000, 0.0000, 0.0000, 0.0000, 0.0000, 1.0000, -0.0028, -0.0009, -0.0095, 0.0000, 0.0000, 0.0000, 0.0000, 0.0000, 0.0000, 0.0000
0, 1.2075, 388, -0.4858, 0.1887, -0.8737, 0.5561, 0.2585, 0.2573, 0.0000, 0.0000, 0.0000, 0.0000, 0.0000, 0.0000, 1.0000, -0.0028, -0.0009, -0.0095, 0.0000, 0.0000, 0.0000, 0.0000, 0.0000, 0.0000, 0.0000
0, 1.2100, 389, -0.4814, 0.1892, -0.8468, 0.2911, 0.2436, 0.0590, 0.0000, 0.0000, 0.0000, 0.0000, 0.0000, 0.0000, 1.0000, -0.0027, -0.0008, -0.0095, 0.0000, 0.0000, 0.0000, 0.0000, 0.0000, 0.0000, 0.0000
0, 1.2150, 390, -0.4657, 0.1770, -0.8736, 0.6989, -0.4934, -0.2055, 0.0000, 0.0000, 0.0000, 0.0000, 0.0000, 0.0000, 1.0000, -0.0027, -0.0007, -0.0095, 0.0000, 0.0000, 0.0000, 0.0000, 0.0000, 0.0000, 0.0000
0, 1.2175, 391, -0.4698, 0.1926, -0.8776, 0.5621, -0.2273, -0.2084, 0.0000, 0.0000, 0.0000, 0.0000, 0.0000, 0.0000, 1.0000, -0.0027, -0.0007, -0.0095, 0.0000, 0.0000, 0.0000, 0.0000, 0.0000, 0.0000, 0.0000
0, 1.2200, 392, -0.4817, 0.1888, -0.8660, -0.2996, 0.0890, 0.2103, 0.0000, 0.0000, 0.0000, 0.0000, 0.0000, 0.0000, 1.0000, -0.0027, -0.0007, -0.0095, 0.0000, 0.0000, 0.0000, 0.0000, 0.0000, 0.0000, 0.0000
0, 1.2225, 393, -0.4817, 0.1966, -0.8700, 0.4351, -0.4290, 0.0705, 0.0000, 0.0000, 0.0000, 0.0000, 0.0000, 0.0000, 1.0000, -0.0026, -0.0006, -0.0095, 0.0000, 0.0000, 0.0000, 0.0000, 0.0000, 0.0000, 0.0000
0, 1.2250, 394, -0.4656, 0.1890, -0.8622, 0.3694, -0.5769, -0.3331, 0.0000, 0.0000, 0.0000, 0.0000, 0.0000, 0.0000, 1.0000, -0.0026, -0.0006, -0.0095, 0.0000, 0.0000, 0.0000, 0.0000, 0.0000, 0.0000, 0.0000
0, 1.2350, 395, -0.4737, 0.2046, -0.8624, 0.2300, -0.0299, 0.0661, 0.0000, 0.0000, 0.0000, 0.0000, 0.0000, 0.0000, 1.0000, -0.0024, -0.0006, -0.0095, 0.0000, 0.0000, 0.0000, 0.0000, 0.0000, 0.0000, 0.0000
0, 1.2375, 396, -0.4738, 0.2005, -0.8738, -0.4248, -0.2514, 0.3561, 0.0000, 0.0000, 0.0000, 0.0000, 0.0000, 0.0000, 1.0000, -0.0024, -0.0006, -0.0095, 0.0000, 0.0000, 0.0000, 0.0000, 0.0000, 0.0000, 0.0000
0, 1.2401, 397, -0.4739, 0.2003, -0.8815, -0.3618, -0.1895, 0.0135, 0.0000, 0.0000, 0.0000, 0.0000, 0.0000, 0.0000, 1.0000, -0.0023, -0.0007, -0.0095, 0.0000, 0.0000, 0.0000, 0.0000, 0.0000, 0.0000, 0.0000
0, 1.2450, 398, -0.4778, 0.1926, -0.8738, 0.1660, -0.3166, -0.4705, 0.0000, 0.0000, 0.0000, 0.0000, 0.0000, 0.0000, 1.0000, -0.0023, -0.0007, -0.0095, 0.0000, 0.0000, 0.0000, 0.0000, 0.0000, 0.0000, 0.0000
0, 1.2475, 399, -0.4778, 0.1887, -0.8737, -0.0944, -0.3100, 0.2147, 0.0000, 0.0000, 0.0000, 0.0000, 0.0000, 0.0000, 1.0000, -0.0023, -0.0007, -0.0095, 0.0000, 0.0000, 0.0000, 0.0000, 0.0000, 0.0000, 0.0000
0, 1.2525, 400, -0.4898, 0.1847, -0.8775, -0.4322, -0.1391, -0.5982, 0.0000, 0.0000, 0.0000, 0.0000, 0.0000, 0.0000, 1.0000, -0.0022, -0.0006, -0.0095, 0.0000, 0.0000, 0.0000, 0.0000, 0.0000, 0.0000, 0.0000
0, 1.2550, 401, -0.4857, 0.1927, -0.8661, 0.0314, 0.1064, 0.4072, 0.0000, 0.0000, 0.0000, 0.0000, 0.0000, 0.0000, 1.0000, -0.0022, -0.0005, -0.0095, 0.0000, 0.0000, 0.0000, 0.0000, 0.0000, 0.0000, 0.0000
0, 1.2575, 402, -0.4815, 0.1930, -0.8545, 0.2990, -0.3067, -0.2694, 0.0000, 0.0000, 0.0000, 0.0000, 0.0000, 0.0000, 1.0000, -0.0022, -0.0004, -0.0095, 0.0000, 0.0000, 0.0000, 0.0000, 0.0000, 0.0000, 0.0000
0, 1.2675, 403, -0.4818, 0.1887, -0.8737, 0.6912, -0.2356, -0.7549, 0.0000, 0.0000, 0.0000, 0.0000, 0.0000, 0.0000, 1.0000, -0.0022, -0.0004, -0.0094, 0.0000, 0.0000, 0.0000, 0.0000, 0.0000, 0.0000, 0.0000
0, 1.2700, 404, -0.4696, 0.1889, -0.8622, 0.5009, -0.5008, -0.2014, 0.0000, 0.0000, 0.0000, 0.0000, 0.0000, 0.0000, 1.0000, -0.0022, -0.0004, -0.0094, 0.0000, 0.0000, 0.0000, 0.0000, 0.0000, 0.0000, 0.0000
0, 1.2725, 405, -0.4658, 0.1730, -0.8774, -0.2958, -0.4068, -0.6632, 0.0000, 0.0000, 0.0000, 0.0000, 0.0000, 0.0000, 1.0000, -0.0023, -0.0004, -0.0094, 0.0000, 0.0000, 0.0000, 0.0000, 0.0000, 0.0000, 0.0000
0, 1.2750, 406, -0.4619, 0.1846, -0.8852, 0.1665, -0.2406, -0.1321, 0.0000, 0.0000, 0.0000, 0.0000, 0.0000, 0.0000, 1.0000, -0.0023, -0.0005, -0.0095, 0.0000, 0.0000, 0.0000, 0.0000, 0.0000, 0.0000, 0.0000
0, 1.2775, 407, -0.4617, 0.1927, -0.8699, -0.0355, -0.1936, -0.6731, 0.0000, 0.0000, 0.0000, 0.0000, 0.0000, 0.0000, 1.0000, -0.0023, -0.0006, -0.0095, 0.0000, 0.0000, 0.0000, 0.0000, 0.0000, 0.0000, 0.0000
0, 1.2800, 408, -0.4777, 0.1888, -0.8660, 0.0922, 0.0114, -0.8161, 0.0000, 0.0000, 0.0000, 0.0000, 0.0000, 0.0000, 1.0000, -0.0023, -0.0005, -0.0094, 0.0000, 0.0000, 0.0000, 0.0000, 0.0000, 0.0000, 0.0000
0, 1.2825, 409, -0.4815, 0.1812, -0.8583, -0.0377, -0.1308, -0.8784, 0.0000, 0.0000, 0.0000, 0.0000, 0.0000, 0.0000, 1.0000, -0.0024, -0.0005, -0.0094, 0.0000, 0.0000, 0.0000, 0.0000, 0.0000, 0.0000, 0.0000
0, 1.2875, 410, -0.4739, 0.1886, -0.8814, 0.3584, 0.3254, 0.5319, 0.0000, 0.0000, 0.0000, 0.0000, 0.0000, 0.0000, 1.0000, -0.0024, -0.0005, -0.0094, 0.0000, 0.0000, 0.0000, 0.0000, 0.0000, 0.0000, 0.0000
0, 1.2900, 411, -0.4739, 0.1846, -0.8814, 0.2984, -0.0158, 0.5405, 0.0000, 0.0000, 0.0000, 0.0000, 0.0000, 0.0000, 1.0000, -0.0024, -0.0005, -0.0095, 0.0000, 0.0000, 0.0000, 0.0000, 0.0000, 0.0000, 0.0000
0, 1.2925, 412, -0.4739, 0.1965, -0.8776, -0.6252, -0.1234, 0.3575, 0.0000, 0.0000, 0.0000, 0.0000, 0.0000, 0.0000, 1.0000, -0.0024, -0.0006, -0.0095, 0.0000, 0.0000, 0.0000, 0.0000, 0.0000, 0.0000, 0.0000
0, 1.2950, 413, -0.4738, 0.1807, -0.8813, -0.2929, -0.2464, 0.3534, 0.0000, 0.0000, 0.0000, 0.0000, 0.0000, 0.0000, 1.0000, -0.0024, -0.0006, -0.0095, 0.0000, 0.0000, 0.0000, 0.0000, 0.0000, 0.0000, 0.0000
0, 1.3026, 414, -0.4737, 0.1849, -0.8698, -0.5072, 0.2567, -0.9451, 0.0000, 0.0000, 0.0000, 0.0000, 0.0000, 0.0000, 1.0000, -0.0026, -0.0006, -0.0095, 0.0000, 0.0000, 0.0000, 0.0000, 0.0000, 0.0000, 0.0000
0, 1.3051, 415, -0.4776, 0.1810, -0.8660, -0.0412, -0.0002, -1.0851, 0.0000, 0.0000, 0.0000, 0.0000, 0.0000, 0.0000, 1.0000, -0.0027, -0.0006, -0.0094, 0.0000, 0.0000, 0.0000, 0.0000, 0.0000, 0.0000, 0.0000
0, 1.3075, 416, -0.4699, 0.2004, -0.8777, -0.0406, 0.2229, -0.2738, 0.0000, 0.0000, 0.0000, 0.0000, 0.0000, 0.0000, 1.0000, -0.0026, -0.0006, -0.0094, 0.0000, 0.0000, 0.0000, 0.0000, 0.0000, 0.0000, 0.0000
0, 1.3100, 417, -0.4780, 0.2001, -0.8892, -0.1700, 0.2295, 0.2047, 0.0000, 0.0000, 0.0000, 0.0000, 0.0000, 0.0000, 1.0000, -0.0025, -0.0007, -0.0094, 0.0000, 0.0000, 0.0000, 0.0000, 0.0000, 0.0000, 0.0000
0, 1.3125, 418, -0.4937, 0.1888, -0.8660, 0.2993, -0.0852, 0.4739, 0.0000, 0.0000, 0.0000, 0.0000, 0.0000, 0.0000, 1.0000, -0.0025, -0.0006, -0.0094, 0.0000, 0.0000, 0.0000, 0.0000, 0.0000, 0.0000, 0.0000
0, 1.3150, 419, -0.4815, 0.1851, -0.8583, 1.0220, 0.0743, 0.3198, 0.0000, 0.0000, 0.0000, 0.0000, 0.0000, 0.0000, 1.0000, -0.0026, -0.0005, -0.0094, 0.0000, 0.0000, 0.0000, 0.0000, 0.0000, 0.0000, 0.0000
0, 1.3175, 420, -0.4777, 0.1849, -0.8698, 0.4258, -0.0324, -0.3459, 0.0000, 0.0000, 0.0000, 0.0000, 0.0000, 0.0000, 1.0000, -0.0026, -0.0005, -0.0094, 0.0000, 0.0000, 0.0000, 0.0000, 0.0000, 0.0000, 0.0000
0, 1.3250, 421, -0.4697, 0.1889, -0.8660, -0.2282, -0.1035, 0.5530, 0.0000, 0.0000, 0.0000, 0.0000, 0.0000, 0.0000, 1.0000, -0.0026, -0.0006, -0.0095, 0.0000, 0.0000, 0.0000, 0.0000, 0.0000, 0.0000, 0.0000
0, 1.3275, 422, -0.4735, 0.2008, -0.8546, -0.3625, -0.0457, 0.3505, 0.0000, 0.0000, 0.0000, 0.0000, 0.0000, 0.0000, 1.0000, -0.0025, -0.0006, -0.0095, 0.0000, 0.0000, 0.0000, 0.0000, 0.0000, 0.0000, 0.0000
0, 1.3325, 423, -0.4778, 0.2004, -0.8738, 0.0926, 0.1601, -0.2752, 0.0000, 0.0000, 0.0000, 0.0000, 0.0000, 0.0000, 1.0000, -0.0024, -0.0007, -0.0094, 0.0000, 0.0000, 0.0000, 0.0000, 0.0000, 0.0000, 0.0000
0, 1.3350, 424, -0.4857, 0.1690, -0.8774, 0.0347, -0.3183, -0.3318, 0.0000, 0.0000, 0.0000, 0.0000, 0.0000, 0.0000, 1.0000, -0.0025, -0.0006, -0.0094, 0.0000, 0.0000, 0.0000, 0.0000, 0.0000, 0.0000, 0.0000
0, 1.3375, 425, -0.4818, 0.1886, -0.8776, -0.5633, -0.2135, -0.6619, 0.0000, 0.0000, 0.0000, 0.0000, 0.0000, 0.0000, 1.0000, -0.0025, -0.0006, -0.0094, 0.0000, 0.0000, 0.0000, 0.0000, 0.0000, 0.0000, 0.0000
0, 1.3400, 426, -0.4819, 0.1964, -0.8776, -0.2343, 0.2353, 0.5459, 0.0000, 0.0000, 0.0000, 0.0000, 0.0000, 0.0000, 1.0000, -0.0025, -0.0006, -0.0094, 0.0000, 0.0000, 0.0000, 0.0000, 0.0000, 0.0000, 0.0000
0, 1.3425, 427, -0.4819, 0.1845, -0.8852, -0.1003, -0.0440, 0.0051, 0.0000, 0.0000, 0.0000, 0.0000, 0.0000, 0.0000, 1.0000, -0.0025, -0.0006, -0.0094, 0.0000, 0.0000, 0.0000, 0.0000, 0.0000, 0.0000, 0.0000
0, 1.3475, 428, -0.4737, 0.1928, -0.8661, -0.1620, -0.2464, 0.1467, 0.0000, 0.0000, 0.0000, 0.0000, 0.0000, 0.0000, 1.0000, -0.0025, -0.0007, -0.0094, 0.0000, 0.0000, 0.0000, 0.0000, 0.0000, 0.0000, 0.0000
0, 1.3500, 429, -0.4657, 0.1848, -0.8737, 0.1056, -0.2927, 0.6183, 0.0000, 0.0000, 0.0000, 0.0000, 0.0000, 0.0000, 1.0000, -0.0025, -0.0007, -0.0095, 0.0000, 0.0000, 0.0000, 0.0000, 0.0000, 0.0000, 0.0000
0, 1.3525, 430, -0.4699, 0.1807, -0.8852, -0.5672, 0.2823, 0.2116, 0.0000, 0.0000, 0.0000, 0.0000, 0.0000, 0.0000, 1.0000, -0.0025, -0.0008, -0.0095, 0.0000, 0.0000, 0.0000, 0.0000, 0.0000, 0.0000, 0.0000
0, 1.3550, 431, -0.4578, 0.1926, -0.8776, -0.3009, 0.0097, -0.2640, 0.0000, 0.0000, 0.0000, 0.0000, 0.0000, 0.0000, 1.0000, -0.0025, -0.0009, -0.0095, 0.0000, 0.0000, 0.0000, 0.0000, 0.0000, 0.0000, 0.0000
0, 1.3575, 432, -0.4817, 0.1809, -0.8698, -0.0226, -0.5736, 0.4229, 0.0000, 0.0000, 0.0000, 0.0000, 0.0000, 0.0000, 1.0000, -0.0025, -0.0009, -0.0095, 0.0000, 0.0000, 0.0000, 0.0000, 0.0000, 0.0000, 0.0000
0, 1.3600, 433, -0.4779, 0.1846, -0.8814, -0.1605, -0.4596, -0.2568, 0.0000, 0.0000, 0.0000, 0.0000, 0.0000, 0.0000, 1.0000, -0.0026, -0.0009, -0.0095, 0.0000, 0.0000, 0.0000, 0.0000, 0.0000, 0.0000, 0.0000
0, 1.3676, 434, -0.4697, 0.1810, -0.8698, -0.1658, -0.1175, -0.1280, 0.0000, 0.0000, 0.0000, 0.0000, 0.0000, 0.0000, 1.0000, -0.0028, -0.0009, -0.0095, 0.0000, 0.0000, 0.0000, 0.0000, 0.0000, 0.0000, 0.0000
0, 1.3700, 435, -0.4779, 0.1885, -0.8814, 0.0917, 0.4493, 0.4667, 0.0000, 0.0000, 0.0000, 0.0000, 0.0000, 0.0000, 1.0000, -0.0028, -0.0009, -0.0095, 0.0000, 0.0000, 0.0000, 0.0000, 0.0000, 0.0000, 0.0000
0, 1.3750, 436, -0.4858, 0.1808, -0.8775, 0.4288, 0.0553, 0.4683, 0.0000, 0.0000, 0.0000, 0.0000, 0.0000, 0.0000, 0.9999, -0.0029, -0.0009, -0.0096, 0.0000, 0.0000, 0.0000, 0.0000, 0.0000, 0.0000, 0.0000
0, 1.3775, 437, -0.4817, 0.1888, -0.8699, -0.0894, -0.5067, 0.4908, 0.0000, 0.0000, 0.0000, 0.0000, 0.0000, 0.0000, 0.9999, -0.0028, -0.0009, -0.0096, 0.0000, 0.0000, 0.0000, 0.0000, 0.0000, 0.0000, 0.0000
0, 1.3825, 438, -0.4777, 0.1770, -0.8698, 0.7596, -0.0017, 0.3948, 0.0000, 0.0000, 0.0000, 0.0000, 0.0000, 0.0000, 0.9999, -0.0029, -0.0008, -0.0096, 0.0000, 0.0000, 0.0000, 0.0000, 0.0000, 0.0000, 0.0000
0, 1.3850, 439, -0.4776, 0.1850, -0.8621, 0.3652, -0.2298, -0.0004, 0.0000, 0.0000, 0.0000, 0.0000, 0.0000, 0.0000, 0.9999, -0.0029, -0.0008, -0.0096, 0.0000, 0.0000, 0.0000, 0.0000, 0.0000, 0.0000, 0.0000
0, 1.3875, 440, -0.4657, 0.1889, -0.8660, -0.2993, -0.0564, -0.1946, 0.0000, 0.0000, 0.0000, 0.0000, 0.0000, 0.0000, 0.9999, -0.0029, -0.0008, -0.0096, 0.0000, 0.0000, 0.0000, 0.0000, 0.0000, 0.0000, 0.0000
0, 1.3900, 441, -0.4697, 0.1928, -0.8661, 0.0330, -0.1795, -0.1987, 0.0000, 0.0000, 0.0000, 0.0000, 0.0000, 0.0000, 0.9999, -0.0028, -0.0009, -0.0096, 0.0000, 0.0000, 0.0000, 0.0000, 0.0000, 0.0000, 0.0000
0, 1.3950, 442, -0.4818, 0.2043, -0.8739, 0.6300, -0.1422, 0.4004, 0.0000, 0.0000, 0.0000, 0.0000, 0.0000, 0.0000, 1.0000, -0.0027, -0.0007, -0.0096, 0.0000, 0.0000, 0.0000, 0.0000, 0.0000, 0.0000, 0.0000
0, 1.3975, 443, -0.4817, 0.1690, -0.8774, 0.0322, 0.0370, 0.3407, 0.0000, 0.0000, 0.0000, 0.0000, 0.0000, 0.0000, 0.9999, -0.0029, -0.0007, -0.0096, 0.0000, 0.0000, 0.0000, 0.0000, 0.0000, 0.0000, 0.0000
0, 1.4000, 444, -0.4776, 0.1811, -0.8621, -0.3092, 0.4113, -0.4764, 0.0000, 0.0000, 0.0000, 0.0000, 0.0000, 0.0000, 0.9999, -0.0029, -0.0007, -0.0096, 0.0000, 0.0000, 0.0000, 0.0000, 0.0000, 0.0000, 0.0000
0, 1.4025, 445, -0.4735, 0.1772, -0.8621, -0.1681, -0.0547, -0.3333, 0.0000, 0.0000, 0.0000, 0.0000, 0.0000, 0.0000, 0.9999, -0.0030, -0.0006, -0.0096, 0.0000, 0.0000, 0.0000, 0.0000, 0.0000, 0.0000, 0.0000
0, 1.4050, 446, -0.4739, 0.1728, -0.8889, -0.3660, -0.0622, -0.3291, 0.0000, 0.0000, 0.0000, 0.0000, 0.0000, 0.0000, 0.9999, -0.0031, -0.0007, -0.0096, 0.0000, 0.0000, 0.0000, 0.0000, 0.0000, 0.0000, 0.0000
0, 1.4100, 447, -0.4773, 0.1696, -0.8505, 0.0985, -0.1059, -0.0656, 0.0000, 0.0000, 0.0000, 0.0000, 0.0000, 0.0000, 0.9999, -0.0033, -0.0005, -0.0097, 0.0000, 0.0000, 0.0000, 0.0000, 0.0000, 0.0000, 0.0000
0, 1.4125, 448, -0.4657, 0.1848, -0.8737, 0.5566, 0.1875, 0.1228, 0.0000, 0.0000, 0.0000, 0.0000, 0.0000, 0.0000, 0.9999, -0.0033, -0.0005, -0.0097, 0.0000, 0.0000, 0.0000, 0.0000, 0.0000, 0.0000, 0.0000
0, 1.4150, 449, -0.4696, 0.1889, -0.8622, -0.0282, -0.4530, -0.1916, 0.0000, 0.0000, 0.0000, 0.0000, 0.0000, 0.0000, 0.9999, -0.0033, -0.0005, -0.0096, 0.0000, 0.0000, 0.0000, 0.0000, 0.0000, 0.0000, 0.0000
0, 1.4175, 450, -0.4656, 0.1811, -0.8621, 0.2322, -0.2398, -0.2015, 0.0000, 0.0000, 0.0000, 0.0000, 0.0000, 0.0000, 0.9999, -0.0033, -0.0006, -0.0096, 0.0000, 0.0000, 0.0000, 0.0000, 0.0000, 0.0000, 0.0000
0, 1.4225, 451, -0.4818, 0.1926, -0.8738, -0.3639, -0.0523, 0.0786, 0.0000, 0.0000, 0.0000, 0.0000, 0.0000, 0.0000, 0.9999, -0.0032, -0.0005, -0.0096, 0.0000, 0.0000, 0.0000, 0.0000, 0.0000, 0.0000, 0.0000
0, 1.4250, 452, -0.4656, 0.1732, -0.8697, 0.2397, -0.4248, 0.5504, 0.0000, 0.0000, 0.0000, 0.0000, 0.0000, 0.0000, 0.9999, -0.0033, -0.0006, -0.0096, 0.0000, 0.0000, 0.0000, 0.0000, 0.0000, 0.0000, 0.0000
0, 1.4276, 453, -0.4778, 0.1689, -0.8850, 0.4962, -0.0827, 0.2658, 0.0000, 0.0000, 0.0000, 0.0000, 0.0000, 0.0000, 0.9999, -0.0034, -0.0006, -0.0097, 0.0000, 0.0000, 0.0000, 0.0000, 0.0000, 0.0000, 0.0000
0, 1.4350, 454, -0.4738, 0.1887, -0.8737, -0.0856, -0.7827, 0.2926, 0.0000, 0.0000, 0.0000, 0.0000, 0.0000, 0.0000, 0.9999, -0.0034, -0.0004, -0.0098, 0.0000, 0.0000, 0.0000, 0.0000, 0.0000, 0.0000, 0.0000
0, 1.4375, 455, -0.4736, 0.1928, -0.8622, 0.7650, -0.5636, -0.4094, 0.0000, 0.0000, 0.0000, 0.0000, 0.0000, 0.0000, 0.9999, -0.0034, -0.0004, -0.0098, 0.0000, 0.0000, 0.0000, 0.0000, 0.0000, 0.0000, 0.0000
0, 1.4400, 456, -0.4778, 0.1925, -0.8776, 0.4302, 0.0619, 0.7401, 0.0000, 0.0000, 0.0000, 0.0000, 0.0000, 0.0000, 0.9999, -0.0034, -0.0004, -0.0098, 0.0000, 0.0000, 0.0000, 0.0000, 0.0000, 0.0000, 0.0000
0, 1.4425, 457, -0.4620, 0.1963, -0.8892, 0.2959, -0.0274, 0.0647, 0.0000, 0.0000, 0.0000, 0.0000, 0.0000, 0.0000, 0.9999, -0.0034, -0.0005, -0.0097, 0.0000, 0.0000, 0.0000, 0.0000, 0.0000, 0.0000, 0.0000
0, 1.4450, 458, -0.4617, 0.1888, -0.8699, 0.7578, -0.0100, 0.0550, 0.0000, 0.0000, 0.0000, 0.0000, 0.0000, 0.0000, 0.9999, -0.0034, -0.0006, -0.0097, 0.0000, 0.0000, 0.0000, 0.0000, 0.0000, 0.0000, 0.0000
0, 1.4475, 459, -0.4575, 0.1891, -0.8584, 1.2885, -0.1239, 0.1146, 0.0000, 0.0000, 0.0000, 0.0000, 0.0000, 0.0000, 0.9999, -0.0034, -0.0006, -0.0097, 0.0000, 0.0000, 0.0000, 0.0000, 0.0000, 0.0000, 0.0000
0, 1.4500, 460, -0.4821, 0.1882, -0.8968, 0.8346, -0.6173, 0.0664, 0.0000, 0.0000, 0.0000, 0.0000, 0.0000, 0.0000, 0.9999, -0.0034, -0.0006, -0.0097, 0.0000, 0.0000, 0.0000, 0.0000, 0.0000, 0.0000, 0.0000
0, 1.4525, 461, -0.4777, 0.1809, -0.8698, 0.7636, -0.2033, 0.4670, 0.0000, 0.0000, 0.0000, 0.0000, 0.0000, 0.0000, 0.9999, -0.0034, -0.0006, -0.0098, 0.0000, 0.0000, 0.0000, 0.0000, 0.0000, 0.0000, 0.0000
0, 1.4550, 462, -0.4736, 0.1849, -0.8660, 0.3688, -0.4331, 0.0039, 0.0000, 0.0000, 0.0000, 0.0000, 0.0000, 0.0000, 0.9999, -0.0034, -0.0006, -0.0098, 0.0000, 0.0000, 0.0000, 0.0000, 0.0000, 0.0000, 0.0000
0, 1.4575, 463, -0.4817, 0.1966, -0.8700, 0.3714, -0.4942, 0.2772, 0.0000, 0.0000, 0.0000, 0.0000, 0.0000, 0.0000, 0.9999, -0.0034, -0.0006, -0.0098, 0.0000, 0.0000, 0.0000, 0.0000, 0.0000, 0.0000, 0.0000
0, 1.4625, 464, -0.4738, 0.2005, -0.8738, 0.7647, -0.4182, -0.0045, 0.0000, 0.0000, 0.0000, 0.0000, 0.0000, 0.0000, 0.9999, -0.0033, -0.0006, -0.0098, 0.0000, 0.0000, 0.0000, 0.0000, 0.0000, 0.0000, 0.0000
0, 1.4650, 465, -0.4737, 0.1889, -0.8660, 0.2372, -0.4364, 0.0746, 0.0000, 0.0000, 0.0000, 0.0000, 0.0000, 0.0000, 0.9999, -0.0033, -0.0006, -0.0098, 0.0000, 0.0000, 0.0000, 0.0000, 0.0000, 0.0000, 0.0000
0, 1.4675, 466, -0.4815, 0.1970, -0.8507, 1.1617, -0.6181, -0.4843, 0.0000, 0.0000, 0.0000, 0.0000, 0.0000, 0.0000, 0.9999, -0.0033, -0.0005, -0.0098, 0.0000, 0.0000, 0.0000, 0.0000, 0.0000, 0.0000, 0.0000
0, 1.4700, 467, -0.4776, 0.2007, -0.8585, 0.5574, -0.0290, -0.4166, 0.0000, 0.0000, 0.0000, 0.0000, 0.0000, 0.0000, 0.9999, -0.0033, -0.0005, -0.0098, 0.0000, 0.0000, 0.0000, 0.0000, 0.0000, 0.0000, 0.0000
0, 1.4750, 468, -0.4739, 0.1924, -0.8853, 0.7633, -0.2777, 0.1966, 0.0000, 0.0000, 0.0000, 0.0000, 0.0000, 0.0000, 0.9999, -0.0033, -0.0005, -0.0098, 0.0000, 0.0000, 0.0000, 0.0000, 0.0000, 0.0000, 0.0000
0, 1.4775, 469, -0.4817, 0.1848, -0.8737, 0.5692, -0.5611, 0.0026, 0.0000, 0.0000, 0.0000, 0.0000, 0.0000, 0.0000, 0.9999, -0.0033, -0.0005, -0.0098, 0.0000, 0.0000, 0.0000, 0.0000, 0.0000, 0.0000, 0.0000
0, 1.4800, 470, -0.4816, 0.1968, -0.8584, 0.2477, -0.9008, 0.4924, 0.0000, 0.0000, 0.0000, 0.0000, 0.0000, 0.0000, 0.9999, -0.0033, -0.0005, -0.0098, 0.0000, 0.0000, 0.0000, 0.0000, 0.0000, 0.0000, 0.0000
0, 1.4825, 471, -0.4615, 0.1773, -0.8582, 0.0342, -0.2472, -0.1973, 0.0000, 0.0000, 0.0000, 0.0000, 0.0000, 0.0000, 0.9999, -0.0033, -0.0005, -0.0098, 0.0000, 0.0000, 0.0000, 0.0000, 0.0000, 0.0000, 0.0000
0, 1.4850, 472, -0.4617, 0.1848, -0.8737, 0.4998, -0.2860, 0.2701, 0.0000, 0.0000, 0.0000, 0.0000, 0.0000, 0.0000, 0.9999, -0.0033, -0.0006, -0.0098, 0.0000, 0.0000, 0.0000, 0.0000, 0.0000, 0.0000, 0.0000
0, 1.4901, 473, -0.4777, 0.1888, -0.8699, 0.2327, -0.1637, 0.1369, 0.0000, 0.0000, 0.0000, 0.0000, 0.0000, 0.0000, 0.9999, -0.0034, -0.0005, -0.0098, 0.0000, 0.0000, 0.0000, 0.0000, 0.0000, 0.0000, 0.0000
0, 1.4926, 474, -0.4736, 0.2008, -0.8585, 0.3694, -0.3571, 0.3423, 0.0000, 0.0000, 0.0000, 0.0000, 0.0000, 0.0000, 0.9999, -0.0033, -0.0005, -0.0099, 0.0000, 0.0000, 0.0000, 0.0000, 0.0000, 0.0000, 0.0000
0, 1.4950, 475, -0.4778, 0.1925, -0.8776, 0.2967, -0.2439, -0.4747, 0.0000, 0.0000, 0.0000, 0.0000, 0.0000, 0.0000, 0.9999, -0.0033, -0.0005, -0.0098, 0.0000, 0.0000, 0.0000, 0.0000, 0.0000, 0.0000, 0.0000
0, 1.4975, 476, -0.4697, 0.1928, -0.8661, 0.2974, -0.0208, 0.3366, 0.0000, 0.0000, 0.0000, 0.0000, 0.0000, 0.0000, 0.9999, -0.0032, -0.0005, -0.0098, 0.0000, 0.0000, 0.0000, 0.0000, 0.0000, 0.0000, 0.0000
0, 1.5000, 477, -0.4617, 0.1927, -0.8699, 0.8188, 0.3362, 0.2503, 0.0000, 0.0000, 0.0000, 0.0000, 0.0000, 0.0000, 0.9999, -0.0032, -0.0006, -0.0098, 0.0000, 0.0000, 0.0000, 0.0000, 0.0000, 0.0000, 0.0000
0, 1.5025, 478, -0.4695, 0.1734, -0.8582, 0.6972, -0.2075, 0.4004, 0.0000, 0.0000, 0.0000, 0.0000, 0.0000, 0.0000, 0.9999, -0.0033, -0.0006, -0.0099, 0.0000, 0.0000, 0.0000, 0.0000, 0.0000, 0.0000, 0.0000
0, 1.5050, 479, -0.4657, 0.1809, -0.8736, 0.4300, -0.1596, -0.0032, 0.0000, 0.0000, 0.0000, 0.0000, 0.0000, 0.0000, 0.9999, -0.0033, -0.0007, -0.0099, 0.0000, 0.0000, 0.0000, 0.0000, 0.0000, 0.0000, 0.0000
0, 1.5075, 480, -0.4857, 0.1848, -0.8698, 0.1627, -0.1117, -0.4068, 0.0000, 0.0000, 0.0000, 0.0000, 0.0000, 0.0000, 0.9999, -0.0034, -0.0006, -0.0099, 0.0000, 0.0000, 0.0000, 0.0000, 0.0000, 0.0000, 0.0000
0, 1.5100, 481, -0.4817, 0.1967, -0.8661, 0.0363, -0.3844, -0.2624, 0.0000, 0.0000, 0.0000, 0.0000, 0.0000, 0.0000, 0.9999, -0.0033, -0.0005, -0.0099, 0.0000, 0.0000, 0.0000, 0.0000, 0.0000, 0.0000, 0.0000
0, 1.5125, 482, -0.4698, 0.2005, -0.8738, 0.0342, -0.2472, -0.1973, 0.0000, 0.0000, 0.0000, 0.0000, 0.0000, 0.0000, 0.9999, -0.0032, -0.0006, -0.0098, 0.0000, 0.0000, 0.0000, 0.0000, 0.0000, 0.0000, 0.0000
0, 1.5175, 483, -0.4937, 0.2005, -0.8661, 0.1670, -0.0919, 0.4087, 0.0000, 0.0000, 0.0000, 0.0000, 0.0000, 0.0000, 0.9999, -0.0032, -0.0005, -0.0099, 0.0000, 0.0000, 0.0000, 0.0000, 0.0000, 0.0000, 0.0000
0, 1.5200, 484, -0.4776, 0.1929, -0.8584, -0.0328, -0.1076, 0.0731, 0.0000, 0.0000, 0.0000, 0.0000, 0.0000, 0.0000, 0.9999, -0.0030, -0.0004, -0.0098, 0.0000, 0.0000, 0.0000, 0.0000, 0.0000, 0.0000, 0.0000
0, 1.5225, 485, -0.4697, 0.1927, -0.8699, 0.8276, -0.2835, -0.1446, 0.0000, 0.0000, 0.0000, 0.0000, 0.0000, 0.0000, 0.9999, -0.0030, -0.0004, -0.0099, 0.0000, 0.0000, 0.0000, 0.0000, 0.0000, 0.0000, 0.0000
0, 1.5250, 486, -0.4854, 0.1773, -0.8544, 0.9634, -0.4074, 0.1273, 0.0000, 0.0000, 0.0000, 0.0000, 0.0000, 0.0000, 0.9999, -0.0030, -0.0003, -0.0099, 0.0000, 0.0000, 0.0000, 0.0000, 0.0000, 0.0000, 0.0000
0, 1.5275, 487, -0.4857, 0.1966, -0.8700, 0.2279, 0.1073, 0.1312, 0.0000, 0.0000, 0.0000, 0.0000, 0.0000, 0.0000, 0.9999, -0.0030, -0.0003, -0.0099, 0.0000, 0.0000, 0.0000, 0.0000, 0.0000, 0.0000, 0.0000
0, 1.5300, 488, -0.4699, 0.1886, -0.8814, 0.6933, -0.0059, 0.3282, 0.0000, 0.0000, 0.0000, 0.0000, 0.0000, 0.0000, 0.9999, -0.0030, -0.0003, -0.0099, 0.0000, 0.0000, 0.0000, 0.0000, 0.0000, 0.0000, 0.0000
0, 1.5325, 489, -0.4735, 0.1773, -0.8582, 0.2190, 0.4328, -0.4196, 0.0000, 0.0000, 0.0000, 0.0000, 0.0000, 0.0000, 0.9999, -0.0030, -0.0003, -0.0099, 0.0000, 0.0000, 0.0000, 0.0000, 0.0000, 0.0000, 0.0000
0, 1.5375, 490, -0.4778, 0.1925, -0.8776, 0.4896, 0.1800, -0.0797, 0.0000, 0.0000, 0.0000, 0.0000, 0.0000, 0.0000, 0.9999, -0.0030, -0.0003, -0.0099, 0.0000, 0.0000, 0.0000, 0.0000, 0.0000, 0.0000, 0.0000
0, 1.5400, 491, -0.4894, 0.1812, -0.8544, 0.7733, -0.9652, -0.1970, 0.0000, 0.0000, 0.0000, 0.0000, 0.0000, 0.0000, 0.9999, -0.0030, -0.0002, -0.0099, 0.0000, 0.0000, 0.0000, 0.0000, 0.0000, 0.0000, 0.0000
0, 1.5425, 492, -0.4656, 0.1771, -0.8659, 0.8326, -0.4801, 0.1315, 0.0000, 0.0000, 0.0000, 0.0000, 0.0000, 0.0000, 0.9999, -0.0030, -0.0002, -0.0099, 0.0000, 0.0000, 0.0000, 0.0000, 0.0000, 0.0000, 0.0000
0, 1.5450, 493, -0.4656, 0.1771, -0.8659, -0.0934, -0.4522, -0.0543, 0.0000, 0.0000, 0.0000, 0.0000, 0.0000, 0.0000, 0.9999, -0.0031, -0.0002, -0.0099, 0.0000, 0.0000, 0.0000, 0.0000, 0.0000, 0.0000, 0.0000
0, 1.5500, 494, -0.4777, 0.1927, -0.8699, 0.7585, -0.0067, 0.1909, 0.0000, 0.0000, 0.0000, 0.0000, 0.0000, 0.0000, 0.9999, -0.0031, -0.0002, -0.0099, 0.0000, 0.0000, 0.0000, 0.0000, 0.0000, 0.0000, 0.0000
0, 1.5551, 495, -0.4697, 0.1966, -0.8700, 0.1552, 0.4403, -0.0104, 0.0000, 0.0000, 0.0000, 0.0000, 0.0000, 0.0000, 0.9999, -0.0031, -0.0002, -0.0099, 0.0000, 0.0000, 0.0000, 0.0000, 0.0000, 0.0000, 0.0000
0, 1.5575, 496, -0.4696, 0.1732, -0.8659, 0.2992, -0.2323, 0.0010, 0.0000, 0.0000, 0.0000, 0.0000, 0.0000, 0.0000, 0.9999, -0.0033, -0.0002, -0.0099, 0.0000, 0.0000, 0.0000, 0.0000, 0.0000, 0.0000, 0.0000
0, 1.5650, 497, -0.4736, 0.1810, -0.8660, -0.2944, -0.4002, -0.3914, 0.0000, 0.0000, 0.0000, 0.0000, 0.0000, 0.0000, 0.9999, -0.0034, -0.0003, -0.0099, 0.0000, 0.0000, 0.0000, 0.0000, 0.0000, 0.0000, 0.0000
0, 1.5675, 498, -0.4737, 0.1928, -0.8661, 0.1587, 0.3097, 0.1963, 0.0000, 0.0000, 0.0000, 0.0000, 0.0000, 0.0000, 0.9999, -0.0034, -0.0003, -0.0099, 0.0000, 0.0000, 0.0000, 0.0000, 0.0000, 0.0000, 0.0000
0, 1.5700, 499, -0.4736, 0.1889, -0.8622, 0.1015, -0.0183, 0.7485, 0.0000, 0.0000, 0.0000, 0.0000, 0.0000, 0.0000, 0.9999, -0.0033, -0.0003, -0.0099, 0.0000, 0.0000, 0.0000, 0.0000, 0.0000, 0.0000, 0.0000
0, 1.5800, 500, -0.4737, 0.1928, -0.8661, -0.7281, 0.0861, 0.3275, 0.0000, 0.0000, 0.0000, 0.0000, 0.0000, 0.0000, 0.9999, -0.0033, -0.0003, -0.0099, 0.0000, 0.0000, 0.0000, 0.0000, 0.0000, 0.0000, 0.0000
0, 1.5825, 501, -0.4737, 0.1849, -0.8698, -0.5335, 0.1514, -0.0859, 0.0000, 0.0000, 0.0000, 0.0000, 0.0000, 0.0000, 0.9999, -0.0033, -0.0004, -0.0099, 0.0000, 0.0000, 0.0000, 0.0000, 0.0000, 0.0000, 0.0000
0, 1.5850, 502, -0.4737, 0.1889, -0.8660, -0.4006, 0.2340, 0.3177, 0.0000, 0.0000, 0.0000, 0.0000, 0.0000, 0.0000, 0.9999, -0.0033, -0.0004, -0.0099, 0.0000, 0.0000, 0.0000, 0.0000, 0.0000, 0.0000, 0.0000
0, 1.5875, 503, -0.4776, 0.1928, -0.8622, 0.2006, -0.2228, 0.1112, 0.0000, 0.0000, 0.0000, 0.0000, 0.0000, 0.0000, 0.9999, -0.0033, -0.0003, -0.0099, 0.0000, 0.0000, 0.0000, 0.0000, 0.0000, 0.0000, 0.0000
0, 1.5900, 504, -0.4617, 0.1889, -0.8660, 0.1227, 0.3795, -0.1041, 0.0000, 0.0000, 0.0000, 0.0000, 0.0000, 0.0000, 0.9999, -0.0032, -0.0004, -0.0099, 0.0000, 0.0000, 0.0000, 0.0000, 0.0000, 0.0000, 0.0000
0, 1.5950, 505, -0.4736, 0.1731, -0.8697, -0.2017, 0.0994, 0.0445, 0.0000, 0.0000, 0.0000, 0.0000, 0.0000, 0.0000, 0.9999, -0.0034, -0.0005, -0.0099, 0.0000, 0.0000, 0.0000, 0.0000, 0.0000, 0.0000, 0.0000
0, 1.5975, 506, -0.4777, 0.1888, -0.8660, -0.1959, -0.0940, 0.4565, 0.0000, 0.0000, 0.0000, 0.0000, 0.0000, 0.0000, 0.9999, -0.0034, -0.0004, -0.0099, 0.0000, 0.0000, 0.0000, 0.0000, 0.0000, 0.0000, 0.0000
0, 1.6050, 507, -0.4817, 0.1809, -0.8736, 0.4720, -0.3980, 0.8575, 0.0000, 0.0000, 0.0000, 0.0000, 0.0000, 0.0000, 0.9999, -0.0034, -0.0004, -0.0100, 0.0000, 0.0000, 0.0000, 0.0000, 0.0000, 0.0000, 0.0000
0, 1.6075, 508, -0.4858, 0.1847, -0.8775, -0.0635, -0.3072, -0.1537, 0.0000, 0.0000, 0.0000, 0.0000, 0.0000, 0.0000, 0.9999, -0.0035, -0.0004, -0.0100, 0.0000, 0.0000, 0.0000, 0.0000, 0.0000, 0.0000, 0.0000
0, 1.6100, 509, -0.4937, 0.1808, -0.8736, -0.9045, -1.2881, -0.1156, 0.0000, 0.0000, 0.0000, 0.0000, 0.0000, 0.0000, 0.9999, -0.0034, -0.0003, -0.0100, 0.0000, 0.0000, 0.0000, 0.0000, 0.0000, 0.0000, 0.0000
0, 1.6125, 510, -0.4778, 0.1887, -0.8737, -0.2007, -0.0428, -0.2245, 0.0000, 0.0000, 0.0000, 0.0000, 0.0000, 0.0000, 0.9999, -0.0034, -0.0003, -0.0100, 0.0000, 0.0000, 0.0000, 0.0000, 0.0000, 0.0000, 0.0000
0, 1.6151, 511, -0.4699, 0.1807, -0.8852, 0.1242, 0.1663, -0.5076, 0.0000, 0.0000, 0.0000, 0.0000, 0.0000, 0.0000, 0.9999, -0.0035, -0.0004, -0.0099, 0.0000, 0.0000, 0.0000, 0.0000, 0.0000, 0.0000, 0.0000
0, 1.6176, 512, -0.4777, 0.1967, -0.8661, -0.0775, 0.4348, -0.3052, 0.0000, 0.0000, 0.0000, 0.0000, 0.0000, 0.0000, 0.9999, -0.0034, -0.0004, -0.0099, 0.0000, 0.0000, 0.0000, 0.0000, 0.0000, 0.0000, 0.0000
0, 1.6200, 513, -0.4777, 0.1849, -0.8698, 0.7193, 0.1210, -0.5187, 0.0000, 0.0000, 0.0000, 0.0000, 0.0000, 0.0000, 0.9999, -0.0034, -0.0004, -0.0099, 0.0000, 0.0000, 0.0000, 0.0000, 0.0000, 0.0000, 0.0000
0, 1.6275, 514, -0.4817, 0.1927, -0.8661, 0.1322, -0.0898, 0.1097, 0.0000, 0.0000, 0.0000, 0.0000, 0.0000, 0.0000, 0.9999, -0.0035, -0.0003, -0.0099, 0.0000, 0.0000, 0.0000, 0.0000, 0.0000, 0.0000, 0.0000
0, 1.6300, 515, -0.4657, 0.1967, -0.8661, 0.2051, -0.4955, 0.0489, 0.0000, 0.0000, 0.0000, 0.0000, 0.0000, 0.0000, 0.9999, -0.0034, -0.0003, -0.0099, 0.0000, 0.0000, 0.0000, 0.0000, 0.0000, 0.0000, 0.0000
0, 1.6350, 516, -0.4698, 0.1769, -0.8774, 0.2579, 0.1796, -0.1706, 0.0000, 0.0000, 0.0000, 0.0000, 0.0000, 0.0000, 0.9999, -0.0034, -0.0004, -0.0099, 0.0000, 0.0000, 0.0000, 0.0000, 0.0000, 0.0000, 0.0000
0, 1.6375, 517, -0.4776, 0.1850, -0.8621, 0.5236, 0.1978, 0.1637, 0.0000, 0.0000, 0.0000, 0.0000, 0.0000, 0.0000, 0.9999, -0.0034, -0.0004, -0.0100, 0.0000, 0.0000, 0.0000, 0.0000, 0.0000, 0.0000, 0.0000
0, 1.6400, 518, -0.4857, 0.1888, -0.8660, -0.4645, 0.2415, 0.7268, 0.0000, 0.0000, 0.0000, 0.0000, 0.0000, 0.0000, 0.9999, -0.0034, -0.0004, -0.0100, 0.0000, 0.0000, 0.0000, 0.0000, 0.0000, 0.0000, 0.0000
0, 1.6425, 519, -0.4777, 0.1848, -0.8737, -0.2583, -0.2997, 0.4622, 0.0000, 0.0000, 0.0000, 0.0000, 0.0000, 0.0000, 0.9999, -0.0034, -0.0004, -0.0100, 0.0000, 0.0000, 0.0000, 0.0000, 0.0000, 0.0000, 0.0000
0, 1.6450, 520, -0.4779, 0.1806, -0.8852, 0.0701, -0.0741, 0.8587, 0.0000, 0.0000, 0.0000, 0.0000, 0.0000, 0.0000, 0.9999, -0.0034, -0.0004, -0.0100, 0.0000, 0.0000, 0.0000, 0.0000, 0.0000, 0.0000, 0.0000
0, 1.6525, 521, -0.4819, 0.1964, -0.8776, -0.1392, 0.2324, -0.1637, 0.0000, 0.0000, 0.0000, 0.0000, 0.0000, 0.0000, 0.9999, -0.0035, -0.0005, -0.0100, 0.0000, 0.0000, 0.0000, 0.0000, 0.0000, 0.0000, 0.0000
0, 1.6550, 522, -0.4818, 0.2004, -0.8738, -0.0674, 0.0415, 0.2470, 0.0000, 0.0000, 0.0000, 0.0000, 0.0000, 0.0000, 0.9999, -0.0034, -0.0005, -0.0100, 0.0000, 0.0000, 0.0000, 0.0000, 0.0000, 0.0000, 0.0000
0, 1.6575, 523, -0.4738, 0.1807, -0.8813, -0.2611, -0.3130, -0.0815, 0.0000, 0.0000, 0.0000, 0.0000, 0.0000, 0.0000, 0.9999, -0.0034, -0.0005, -0.0100, 0.0000, 0.0000, 0.0000, 0.0000, 0.0000, 0.0000, 0.0000
0, 1.6600, 524, -0.4738, 0.2044, -0.8700, 0.3868, 0.3167, -0.3121, 0.0000, 0.0000, 0.0000, 0.0000, 0.0000, 0.0000, 0.9999, -0.0034, -0.0005, -0.0100, 0.0000, 0.0000, 0.0000, 0.0000, 0.0000, 0.0000, 0.0000
0, 1.6625, 525, -0.4698, 0.1769, -0.8774, 0.1949, -0.0295, -0.3009, 0.0000, 0.0000, 0.0000, 0.0000, 0.0000, 0.0000, 0.9999, -0.0035, -0.0006, -0.0100, 0.0000, 0.0000, 0.0000, 0.0000, 0.0000, 0.0000, 0.0000
0, 1.6650, 526, -0.4738, 0.1925, -0.8776, -0.0550, -0.6344, 0.3292, 0.0000, 0.0000, 0.0000, 0.0000, 0.0000, 0.0000, 0.9999, -0.0034, -0.0006, -0.0100, 0.0000, 0.0000, 0.0000, 0.0000, 0.0000, 0.0000, 0.0000
0, 1.6675, 527, -0.4736, 0.1771, -0.8659, 0.2635, -0.0881, -0.0290, 0.0000, 0.0000, 0.0000, 0.0000, 0.0000, 0.0000, 0.9999, -0.0035, -0.0006, -0.0100, 0.0000, 0.0000, 0.0000, 0.0000, 0.0000, 0.0000, 0.0000
0, 1.6700, 528, -0.4537, 0.1810, -0.8736, -0.1978, -0.2493, -0.3562, 0.0000, 0.0000, 0.0000, 0.0000, 0.0000, 0.0000, 0.9999, -0.0036, -0.0007, -0.0100, 0.0000, 0.0000, 0.0000, 0.0000, 0.0000, 0.0000, 0.0000
0, 1.6725, 529, -0.4738, 0.1887, -0.8737, 0.0662, -0.0923, 0.1111, 0.0000, 0.0000, 0.0000, 0.0000, 0.0000, 0.0000, 0.9999, -0.0035, -0.0007, -0.0100, 0.0000, 0.0000, 0.0000, 0.0000, 0.0000, 0.0000, 0.0000
0, 1.6750, 530, -0.4902, 0.1762, -0.9082, 1.1232, -0.1202, 0.0903, 0.0000, 0.0000, 0.0000, 0.0000, 0.0000, 0.0000, 0.9999, -0.0036, -0.0007, -0.0100, 0.0000, 0.0000, 0.0000, 0.0000, 0.0000, 0.0000, 0.0000
0, 1.6776, 531, -0.4818, 0.2044, -0.8700, 0.1241, 0.3861, 0.1677, 0.0000, 0.0000, 0.0000, 0.0000, 0.0000, 0.0000, 0.9999, -0.0035, -0.0007, -0.0100, 0.0000, 0.0000, 0.0000, 0.0000, 0.0000, 0.0000, 0.0000
0, 1.6801, 532, -0.4658, 0.1887, -0.8776, 0.5798, 0.6679, -0.1195, 0.0000, 0.0000, 0.0000, 0.0000, 0.0000, 0.0000, 0.9999, -0.0035, -0.0008, -0.0100, 0.0000, 0.0000, 0.0000, 0.0000, 0.0000, 0.0000, 0.0000
0, 1.6825, 533, -0.4576, 0.1811, -0.8660, 0.3932, -0.0204, -0.2371, 0.0000, 0.0000, 0.0000, 0.0000, 0.0000, 0.0000, 0.9999, -0.0035, -0.0009, -0.0100, 0.0000, 0.0000, 0.0000, 0.0000, 0.0000, 0.0000, 0.0000
0, 1.6850, 534, -0.4817, 0.1888, -0.8699, 0.6550, 0.1267, -0.1775, 0.0000, 0.0000, 0.0000, 0.0000, 0.0000, 0.0000, 0.9999, -0.0035, -0.0008, -0.0100, 0.0000, 0.0000, 0.0000, 0.0000, 0.0000, 0.0000, 0.0000
0, 1.6875, 535, -0.4777, 0.1927, -0.8699, 0.1927, 0.1804, -0.0333, 0.0000, 0.0000, 0.0000, 0.0000, 0.0000, 0.0000, 0.9999, -0.0035, -0.0008, -0.0099, 0.0000, 0.0000, 0.0000, 0.0000, 0.0000, 0.0000, 0.0000
0, 1.6900, 536, -0.4656, 0.1930, -0.8584, 0.2047, -0.4972, -0.0190, 0.0000, 0.0000, 0.0000, 0.0000, 0.0000, 0.0000, 0.9999, -0.0034, -0.0008, -0.0099, 0.0000, 0.0000, 0.0000, 0.0000, 0.0000, 0.0000, 0.0000
0, 1.6925, 537, -0.4776, 0.1692, -0.8697, -0.7273, -0.1304, -0.2120, 0.0000, 0.0000, 0.0000, 0.0000, 0.0000, 0.0000, 0.9999, -0.0035, -0.0008, -0.0099, 0.0000, 0.0000, 0.0000, 0.0000, 0.0000, 0.0000, 0.0000
0, 1.6950, 538, -0.4657, 0.1849, -0.8698, -0.0026, -0.1080, -0.4312, 0.0000, 0.0000, 0.0000, 0.0000, 0.0000, 0.0000, 0.9999, -0.0035, -0.0009, -0.0099, 0.0000, 0.0000, 0.0000, 0.0000, 0.0000, 0.0000, 0.0000
0, 1.6975, 539, -0.4778, 0.1768, -0.8813, -0.4677, 0.0795, -0.3577, 0.0000, 0.0000, 0.0000, 0.0000, 0.0000, 0.0000, 0.9999, -0.0035, -0.0009, -0.0099, 0.0000, 0.0000, 0.0000, 0.0000, 0.0000, 0.0000, 0.0000
0, 1.7025, 540, -0.4736, 0.2008, -0.8585, -0.7288, -0.1370, -0.4838, 0.0000, 0.0000, 0.0000, 0.0000, 0.0000, 0.0000, 0.9999, -0.0035, -0.0008, -0.0099, 0.0000, 0.0000, 0.0000, 0.0000, 0.0000, 0.0000, 0.0000
0, 1.7050, 541, -0.4934, 0.1773, -0.8505, 0.0630, -0.1072, -0.5005, 0.0000, 0.0000, 0.0000, 0.0000, 0.0000, 0.0000, 0.9999, -0.0035, -0.0007, -0.0099, 0.0000, 0.0000, 0.0000, 0.0000, 0.0000, 0.0000, 0.0000
0, 1.7100, 542, -0.4817, 0.1966, -0.8700, -0.1981, -0.2510, -0.4242, 0.0000, 0.0000, 0.0000, 0.0000, 0.0000, 0.0000, 0.9999, -0.0034, -0.0006, -0.0099, 0.0000, 0.0000, 0.0000, 0.0000, 0.0000, 0.0000, 0.0000
0, 1.7125, 543, -0.4736, 0.1849, -0.8660, -0.3373, 0.1506, -0.4299, 0.0000, 0.0000, 0.0000, 0.0000, 0.0000, 0.0000, 0.9999, -0.0034, -0.0006, -0.0099, 0.0000, 0.0000, 0.0000, 0.0000, 0.0000, 0.0000, 0.0000
0, 1.7150, 544, -0.4774, 0.1812, -0.8544, -0.7945, -0.0652, -0.2120, 0.0000, 0.0000, 0.0000, 0.0000, 0.0000, 0.0000, 0.9999, -0.0034, -0.0006, -0.0099, 0.0000, 0.0000, 0.0000, 0.0000, 0.0000, 0.0000, 0.0000
0, 1.7175, 545, -0.4734, 0.1892, -0.8507, -0.2676, -0.1229, -0.6295, 0.0000, 0.0000, 0.0000, 0.0000, 0.0000, 0.0000, 0.9999, -0.0034, -0.0005, -0.0099, 0.0000, 0.0000, 0.0000, 0.0000, 0.0000, 0.0000, 0.0000
0, 1.7200, 546, -0.4857, 0.1888, -0.8660, 0.4502, 0.5275, -0.1139, 0.0000, 0.0000, 0.0000, 0.0000, 0.0000, 0.0000, 0.9999, -0.0034, -0.0005, -0.0099, 0.0000, 0.0000, 0.0000, 0.0000, 0.0000, 0.0000, 0.0000
0, 1.7225, 547, -0.4818, 0.1808, -0.8775, -0.1320, 0.0457, 0.5202, 0.0000, 0.0000, 0.0000, 0.0000, 0.0000, 0.0000, 0.9999, -0.0034, -0.0005, -0.0099, 0.0000, 0.0000, 0.0000, 0.0000, 0.0000, 0.0000, 0.0000
0, 1.7250, 548, -0.4736, 0.1849, -0.8660, -0.6641, -0.2139, -0.9595, 0.0000, 0.0000, 0.0000, 0.0000, 0.0000, 0.0000, 0.9999, -0.0034, -0.0005, -0.0099, 0.0000, 0.0000, 0.0000, 0.0000, 0.0000, 0.0000, 0.0000
0, 1.7275, 549, -0.4736, 0.2007, -0.8623, -0.1961, -0.1684, 0.1861, 0.0000, 0.0000, 0.0000, 0.0000, 0.0000, 0.0000, 0.9999, -0.0033, -0.0005, -0.0098, 0.0000, 0.0000, 0.0000, 0.0000, 0.0000, 0.0000, 0.0000
0, 1.7350, 550, -0.4819, 0.1924, -0.8814, -0.3274, -0.1700, 0.3248, 0.0000, 0.0000, 0.0000, 0.0000, 0.0000, 0.0000, 0.9999, -0.0032, -0.0004, -0.0099, 0.0000, 0.0000, 0.0000, 0.0000, 0.0000, 0.0000, 0.0000
0, 1.7375, 551, -0.4777, 0.1928, -0.8661, -0.9292, 0.2108, 0.1929, 0.0000, 0.0000, 0.0000, 0.0000, 0.0000, 0.0000, 0.9999, -0.0032, -0.0003, -0.0098, 0.0000, 0.0000, 0.0000, 0.0000, 0.0000, 0.0000, 0.0000
0, 1.7401, 552, -0.4699, 0.1885, -0.8852, -0.7895, -0.2618, 0.0641, 0.0000, 0.0000, 0.0000, 0.0000, 0.0000, 0.0000, 0.9999, -0.0032, -0.0004, -0.0098, 0.0000, 0.0000, 0.0000, 0.0000, 0.0000, 0.0000, 0.0000
0, 1.7450, 553, -0.4698, 0.1887, -0.8737, -0.1404, 0.1531, -0.6380, 0.0000, 0.0000, 0.0000, 0.0000, 0.0000, 0.0000, 0.9999, -0.0032, -0.0004, -0.0098, 0.0000, 0.0000, 0.0000, 0.0000, 0.0000, 0.0000, 0.0000
0, 1.7475, 554, -0.4700, 0.2002, -0.8892, -0.3212, -0.5815, 0.1294, 0.0000, 0.0000, 0.0000, 0.0000, 0.0000, 0.0000, 0.9999, -0.0031, -0.0005, -0.0098, 0.0000, 0.0000, 0.0000, 0.0000, 0.0000, 0.0000, 0.0000
0, 1.7500, 555, -0.4658, 0.1847, -0.8775, -0.6529, -0.6022, -0.2034, 0.0000, 0.0000, 0.0000, 0.0000, 0.0000, 0.0000, 0.9999, -0.0031, -0.0005, -0.0098, 0.0000, 0.0000, 0.0000, 0.0000, 0.0000, 0.0000, 0.0000
0, 1.7525, 556, -0.4816, 0.1810, -0.8659, -0.5942, -0.1932, -0.2133, 0.0000, 0.0000, 0.0000, 0.0000, 0.0000, 0.0000, 0.9999, -0.0032, -0.0004, -0.0098, 0.0000, 0.0000, 0.0000, 0.0000, 0.0000, 0.0000, 0.0000
0, 1.7550, 557, -0.4694, 0.1892, -0.8507, -0.7324, 0.2860, 0.1873, 0.0000, 0.0000, 0.0000, 0.0000, 0.0000, 0.0000, 0.9999, -0.0031, -0.0004, -0.0098, 0.0000, 0.0000, 0.0000, 0.0000, 0.0000, 0.0000, 0.0000
0, 1.7625, 558, -0.5017, 0.1809, -0.8698, -0.8636, 0.2116, 0.1235, 0.0000, 0.0000, 0.0000, 0.0000, 0.0000, 0.0000, 0.9999, -0.0032, -0.0004, -0.0098, 0.0000, 0.0000, 0.0000, 0.0000, 0.0000, 0.0000, 0.0000
0, 1.7650, 559, -0.4936, 0.2007, -0.8585, -0.4008, -0.0602, -0.6281, 0.0000, 0.0000, 0.0000, 0.0000, 0.0000, 0.0000, 0.9999, -0.0031, -0.0003, -0.0098, 0.0000, 0.0000, 0.0000, 0.0000, 0.0000, 0.0000, 0.0000
0, 1.7675, 560, -0.4859, 0.1845, -0.8852, -0.2039, 0.3092, 0.3121, 0.0000, 0.0000, 0.0000, 0.0000, 0.0000, 0.0000, 0.9999, -0.0031, -0.0003, -0.0098, 0.0000, 0.0000, 0.0000, 0.0000, 0.0000, 0.0000, 0.0000
0, 1.7700, 561, -0.4777, 0.2045, -0.8662, -0.9948, 0.2100, 0.2622, 0.0000, 0.0000, 0.0000, 0.0000, 0.0000, 0.0000, 0.9999, -0.0031, -0.0003, -0.0098, 0.0000, 0.0000, 0.0000, 0.0000, 0.0000, 0.0000, 0.0000
0, 1.7725, 562, -0.4698, 0.1926, -0.8776, -0.6679, 0.1348, -0.5589, 0.0000, 0.0000, 0.0000, 0.0000, 0.0000, 0.0000, 0.9999, -0.0031, -0.0003, -0.0097, 0.0000, 0.0000, 0.0000, 0.0000, 0.0000, 0.0000, 0.0000
0, 1.7750, 563, -0.4657, 0.1928, -0.8661, -0.4683, 0.0035, -0.6961, 0.0000, 0.0000, 0.0000, 0.0000, 0.0000, 0.0000, 0.9999, -0.0030, -0.0003, -0.0097, 0.0000, 0.0000, 0.0000, 0.0000, 0.0000, 0.0000, 0.0000
0, 1.7775, 564, -0.4697, 0.1731, -0.8736, -0.4098, 0.5579, -0.3011, 0.0000, 0.0000, 0.0000, 0.0000, 0.0000, 0.0000, 0.9999, -0.0031, -0.0004, -0.0097, 0.0000, 0.0000, 0.0000, 0.0000, 0.0000, 0.0000, 0.0000
0, 1.7800, 565, -0.4736, 0.1810, -0.8660, -0.4718, 0.3538, -0.2275, 0.0000, 0.0000, 0.0000, 0.0000, 0.0000, 0.0000, 0.9999, -0.0031, -0.0004, -0.0097, 0.0000, 0.0000, 0.0000, 0.0000, 0.0000, 0.0000, 0.0000
0, 1.7825, 566, -0.4738, 0.1965, -0.8738, -0.6623, 0.0142, 0.0556, 0.0000, 0.0000, 0.0000, 0.0000, 0.0000, 0.0000, 0.9999, -0.0030, -0.0004, -0.0097, 0.0000, 0.0000, 0.0000, 0.0000, 0.0000, 0.0000, 0.0000
0, 1.7850, 567, -0.4735, 0.1772, -0.8621, -0.5966, -0.0577, -0.2162, 0.0000, 0.0000, 0.0000, 0.0000, 0.0000, 0.0000, 0.9999, -0.0031, -0.0004, -0.0097, 0.0000, 0.0000, 0.0000, 0.0000, 0.0000, 0.0000, 0.0000
0, 1.7875, 568, -0.4816, 0.1929, -0.8584, -0.2698, 0.0869, -0.3619, 0.0000, 0.0000, 0.0000, 0.0000, 0.0000, 0.0000, 0.9999, -0.0030, -0.0003, -0.0097, 0.0000, 0.0000, 0.0000, 0.0000, 0.0000, 0.0000, 0.0000
0, 1.7900, 569, -0.4977, 0.1887, -0.8699, -0.3987, 0.1696, 0.4550, 0.0000, 0.0000, 0.0000, 0.0000, 0.0000, 0.0000, 0.9999, -0.0030, -0.0002, -0.0097, 0.0000, 0.0000, 0.0000, 0.0000, 0.0000, 0.0000, 0.0000
0, 1.7925, 570, -0.4817, 0.1770, -0.8698, -0.6035, 0.3505, -0.1568, 0.0000, 0.0000, 0.0000, 0.0000, 0.0000, 0.0000, 0.9999, -0.0030, -0.0002, -0.0097, 0.0000, 0.0000, 0.0000, 0.0000, 0.0000, 0.0000, 0.0000
0, 1.7950, 571, -0.4656, 0.1811, -0.8660, -0.2685, 0.1663, 0.1124, 0.0000, 0.0000, 0.0000, 0.0000, 0.0000, 0.0000, 0.9999, -0.0031, -0.0003, -0.0097, 0.0000, 0.0000, 0.0000, 0.0000, 0.0000, 0.0000, 0.0000
0, 1.8000, 572, -0.4697, 0.1692, -0.8735, -0.7330, 0.2100, -0.1511, 0.0000, 0.0000, 0.0000, 0.0000, 0.0000, 0.0000, 0.9999, -0.0031, -0.0003, -0.0097, 0.0000, 0.0000, 0.0000, 0.0000, 0.0000, 0.0000, 0.0000
0, 1.8026, 573, -0.4659, 0.1886, -0.8814, -0.0687, -0.0378, -0.2273, 0.0000, 0.0000, 0.0000, 0.0000, 0.0000, 0.0000, 0.9999, -0.0031, -0.0005, -0.0096, 0.0000, 0.0000, 0.0000, 0.0000, 0.0000, 0.0000, 0.0000
0, 1.8051, 574, -0.4656, 0.1692, -0.8697, -0.1396, 0.4505, 0.4437, 0.0000, 0.0000, 0.0000, 0.0000, 0.0000, 0.0000, 0.9999, -0.0032, -0.0005, -0.0097, 0.0000, 0.0000, 0.0000, 0.0000, 0.0000, 0.0000, 0.0000
0, 1.8075, 575, -0.4778, 0.1807, -0.8813, -0.6607, 0.0952, 0.5979, 0.0000, 0.0000, 0.0000, 0.0000, 0.0000, 0.0000, 0.9999, -0.0032, -0.0005, -0.0097, 0.0000, 0.0000, 0.0000, 0.0000, 0.0000, 0.0000, 0.0000
0, 1.8125, 576, -0.4654, 0.1813, -0.8544, -0.3430, 0.4910, -0.3691, 0.0000, 0.0000, 0.0000, 0.0000, 0.0000, 0.0000, 0.9999, -0.0032, -0.0006, -0.0096, 0.0000, 0.0000, 0.0000, 0.0000, 0.0000, 0.0000, 0.0000
0, 1.8150, 577, -0.4655, 0.2048, -0.8508, -0.0661, -0.0989, 0.0460, 0.0000, 0.0000, 0.0000, 0.0000, 0.0000, 0.0000, 0.9999, -0.0028, -0.0006, -0.0096, 0.0000, 0.0000, 0.0000, 0.0000, 0.0000, 0.0000, 0.0000
0, 1.8200, 578, -0.4697, 0.1927, -0.8699, -0.2592, -0.3774, 0.0558, 0.0000, 0.0000, 0.0000, 0.0000, 0.0000, 0.0000, 0.9999, -0.0028, -0.0006, -0.0096, 0.0000, 0.0000, 0.0000, 0.0000, 0.0000, 0.0000, 0.0000
